C0,C1,C2,C3,C4,C5,C6,C7,C8,C9,C10,C11,Ax,Ay,Az,Gr,Gp,Fx_norm,Fy_norm,Fz_norm
0.6075,0.605,0.6725,0.6075,0.69375,0.53375,0.85,0.77,0.80375,0.735,0.76,0.71375,0.496612548828125,0.4998524983723958,0.5310007731119791,0.5000967224932328,0.4991294975744122,0.265913653599311,0.09913874119479694,0.23647574968342394
0.6075,0.605,0.6725,0.6075,0.69375,0.53375,0.85,0.77,0.80375,0.735,0.76,0.71375,0.4966011047363281,0.4998588562011719,0.5309906005859375,0.5000932681184744,0.49906731881525573,0.265913653599311,0.09913874119479694,0.23647574968342394
0.6075,0.605,0.6725,0.6075,0.69375,0.53375,0.85,0.77,0.80375,0.735,0.76,0.71375,0.4965972900390625,0.4998504638671875,0.5309661865234375,0.5000746144947795,0.49907975457248976,0.265913653599311,0.09913874119479694,0.23647574968342394
0.6075,0.605,0.6725,0.6075,0.69375,0.53375,0.85,0.77,0.80375,0.735,0.76,0.71375,0.496624755859375,0.499859619140625,0.5309814453125,0.5000248714982598,0.49899684956208207,0.265913653599311,0.09913874119479694,0.23647574968342394
0.6075,0.605,0.6725,0.6075,0.69375,0.53375,0.85,0.77,0.80375,0.735,0.76,0.71375,0.4965972900390625,0.499835205078125,0.53099365234375,0.4999834190011601,0.4989056540603585,0.265913653599311,0.09913874119479694,0.23647574968342394
0.6075,0.605,0.6725,0.6075,0.69375,0.53375,0.85,0.77,0.80375,0.735,0.76,0.71375,0.4965972900390625,0.499822998046875,0.5309356689453125,0.49995854750290025,0.49882274906615903,0.265913653599311,0.09913874119479694,0.23647574968342394
0.60775,0.60475,0.6727500000000001,0.6075,0.6940000000000001,0.5335,0.85,0.77,0.8035,0.7347499999999999,0.76,0.7140000000000001,0.49661865234375,0.4998077392578125,0.5308929443359375,0.4999005140069606,0.4987812965771634,0.265913653599311,0.09913874119479694,0.23647574968342394
0.608,0.6045,0.6729999999999999,0.6075,0.6942499999999999,0.53325,0.85,0.77,0.80325,0.7345,0.76,0.7142499999999999,0.4966461181640625,0.4998077392578125,0.5308837890625,0.49989222350754065,0.49868181058412403,0.265913653599311,0.09913874119479694,0.23647574968342394
0.6082500000000001,0.60425,0.67325,0.6075,0.6945,0.5329999999999999,0.85,0.77,0.8029999999999999,0.73425,0.76,0.7145,0.4966156005859375,0.4998046875,0.53087158203125,0.49988393300812073,0.4986320676038125,0.265913653599311,0.09913874119479694,0.23647574968342394
0.6085,0.604,0.6735,0.6075,0.69475,0.53275,0.85,0.77,0.8027500000000001,0.7340000000000001,0.76,0.71475,0.4966522216796875,0.4998046875,0.5308441162109375,0.4998507710104409,0.4986154866211808,0.265913653599311,0.09913874119479694,0.23647574968342394
0.60875,0.60375,0.67375,0.6075,0.695,0.5325,0.85,0.77,0.8025,0.73375,0.76,0.715,0.496649169921875,0.499810791015625,0.530908203125,0.49986735200928084,0.49862377711249667,0.265913653599311,0.09913874119479694,0.23647574968342394
0.60875,0.60375,0.67375,0.6075,0.695,0.5325,0.85,0.77,0.8025,0.73375,0.76,0.715,0.496636962890625,0.4998046875,0.53095703125,0.49985906150986087,0.49859890560613274,0.265913653599311,0.09913874119479694,0.23647574968342394
0.60875,0.604,0.67375,0.6075,0.695,0.53275,0.8504999999999999,0.77,0.8022499999999999,0.7332500000000001,0.7597499999999999,0.71375,0.4966217041015625,0.49979248046875,0.5309814453125,0.499842480511021,0.4985574530847207,0.265913653599311,0.09913874119479694,0.23647574968342394
0.60875,0.60425,0.67375,0.6075,0.695,0.5329999999999999,0.851,0.77,0.802,0.73275,0.7595000000000001,0.7125,0.4966461181640625,0.499798583984375,0.5309661865234375,0.499842480511021,0.49849941958067695,0.265913653599311,0.09913874119479694,0.23647574968342394
0.60875,0.6045,0.67375,0.6075,0.695,0.53325,0.8515,0.77,0.80175,0.73225,0.75925,0.71125,0.4966644287109375,0.49979248046875,0.5309844970703125,0.499842480511021,0.4984248050940015,0.265913653599311,0.09913874119479694,0.23647574968342394
0.60875,0.60475,0.67375,0.6075,0.695,0.5335,0.852,0.77,0.8015000000000001,0.73175,0.759,0.71,0.496673583984375,0.4998046875,0.53096923828125,0.499842480511021,0.4983004475945982,0.265913653599311,0.09913874119479694,0.23647574968342394
0.60875,0.605,0.67375,0.6075,0.695,0.53375,0.8525,0.77,0.80125,0.73125,0.75875,0.70875,0.4966705322265625,0.4997833251953125,0.530914306640625,0.499834190011601,0.49822583310792273,0.265913653599311,0.09913874119479694,0.23647574968342394
0.60875,0.605,0.67375,0.6075,0.695,0.53375,0.8525,0.77,0.80125,0.73125,0.75875,0.70875,0.496661376953125,0.4997650146484375,0.5308685302734375,0.49980102801392123,0.4981760901276112,0.265913653599311,0.09913874119479694,0.23647574968342394
0.60875,0.605,0.67375,0.6075,0.695,0.53375,0.8525,0.77,0.80125,0.73125,0.75875,0.70875,0.496710205078125,0.4997222900390625,0.5309051513671875,0.49980102801392123,0.49826728562933476,0.265913653599311,0.09913874119479694,0.23647574968342394
0.60875,0.605,0.67375,0.6075,0.695,0.53375,0.8525,0.77,0.80125,0.73125,0.75875,0.70875,0.496661376953125,0.4997344970703125,0.5308685302734375,0.4998176090127611,0.4983170286096463,0.265913653599311,0.09913874119479694,0.23647574968342394
0.60875,0.605,0.67375,0.6072500000000001,0.695,0.53325,0.85225,0.77075,0.8007500000000001,0.7302500000000001,0.75825,0.70675,0.4966888427734375,0.4997314453125,0.5308441162109375,0.49989222350754065,0.4984911291217775,0.265913653599311,0.09913874119479694,0.23647574968342394
0.60875,0.605,0.67375,0.607,0.695,0.53275,0.852,0.7715000000000001,0.80025,0.72925,0.75775,0.70475,0.4967041015625,0.4997589111328125,0.5308837890625,0.4999170950058005,0.49865693911017644,0.265913653599311,0.09913874119479694,0.23647574968342394
0.60875,0.605,0.67375,0.60675,0.695,0.53225,0.85175,0.77225,0.79975,0.7282500000000001,0.75725,0.7027500000000001,0.4967376708984375,0.4997955322265625,0.53095703125,0.49997512850174014,0.49878958710089566,0.2713865949309995,0.09990574019923691,0.23946057102696536
0.60875,0.605,0.67375,0.6065,0.695,0.53175,0.8515,0.773,0.79925,0.72725,0.7567499999999999,0.70075,0.496661376953125,0.49984130859375,0.5309112548828125,0.5000165809988399,0.4988144585910514,0.2701223734463269,0.09929410942590094,0.24034586518819012
0.60875,0.605,0.67375,0.60625,0.695,0.53125,0.85125,0.77375,0.79875,0.72625,0.75625,0.69875,0.496673583984375,0.4998382568359375,0.530889892578125,0.50000829049942,0.49885591108004707,0.2701223734463269,0.09929410942590094,0.24034586518819012
0.60875,0.605,0.67375,0.60625,0.695,0.53125,0.85125,0.77375,0.79875,0.72625,0.75625,0.69875,0.4966461181640625,0.4998687744140625,0.530914306640625,0.49997512850174014,0.49882274908236723,0.27392037061113356,0.09944721967362626,0.2382395375080546
0.60875,0.605,0.6735,0.60575,0.69525,0.53125,0.85125,0.774,0.7985,0.7254999999999999,0.75625,0.698,0.496661376953125,0.499859619140625,0.530938720703125,0.4999834190011601,0.49877300608584757,0.27559798633098365,0.10005900983402424,0.2375699162776569
0.60875,0.605,0.67325,0.60525,0.6955,0.53125,0.85125,0.77425,0.79825,0.7247499999999999,0.75625,0.6972499999999999,0.4966461181640625,0.499859619140625,0.530914306640625,0.49997512850174014,0.49874813457948364,0.27559798633098365,0.10005900983402424,0.2375699162776569
0.60875,0.605,0.6729999999999999,0.60475,0.69575,0.53125,0.85125,0.7745000000000001,0.7979999999999999,0.7240000000000001,0.75625,0.6965,0.496734619140625,0.499847412109375,0.53099365234375,0.49997512850174014,0.49877300606963937,0.274763183201724,0.10112980627107901,0.2380010812973776
0.60875,0.605,0.6727500000000001,0.60425,0.696,0.53125,0.85125,0.7747499999999999,0.7977500000000001,0.7232500000000001,0.75625,0.69575,0.496746826171875,0.4998565673828125,0.5310638427734375,0.4999834190011601,0.498847620572523,0.2735123142843187,0.1026586393801633,0.23777918684329344
0.60875,0.605,0.6725,0.60375,0.69625,0.53125,0.85125,0.775,0.7975,0.7225,0.75625,0.695,0.4967926025390625,0.4998321533203125,0.53106689453125,0.4999336760046404,0.4988642015551547,0.2735123142843187,0.1026586393801633,0.23777918684329344
0.60875,0.605,0.6725,0.60375,0.69625,0.53125,0.85125,0.775,0.7975,0.7225,0.75625,0.695,0.496795654296875,0.499835205078125,0.5310394287109375,0.4999668380023202,0.49888907304531044,0.27266149223239733,0.10158848808121672,0.2383335858274575
0.609,0.605,0.6727500000000001,0.604,0.69625,0.5315,0.85125,0.7755,0.7972499999999999,0.722,0.75625,0.6940000000000001,0.4968048095703125,0.499798583984375,0.5310394287109375,0.5000248714982598,0.49895539704067005,0.273096248496173,0.10220060270813382,0.2389967717485917
0.60925,0.605,0.6729999999999999,0.60425,0.69625,0.53175,0.85125,0.7759999999999999,0.797,0.7215,0.75625,0.693,0.4967803955078125,0.499798583984375,0.5310028076171875,0.5000497429965197,0.49899684954587387,0.27182402274774337,0.10143634743811873,0.23921879657709283
0.6095,0.605,0.67325,0.6045,0.69625,0.532,0.85125,0.7765000000000001,0.79675,0.721,0.75625,0.6920000000000001,0.4967864990234375,0.4997802734375,0.5309967041015625,0.5001160669918793,0.4990465925423936,0.27182402274774337,0.10143634743811873,0.23921879657709283
0.60975,0.605,0.6735,0.60475,0.69625,0.53225,0.85125,0.777,0.7965000000000001,0.7204999999999999,0.75625,0.691,0.49674072265625,0.499755859375,0.530999755859375,0.5001823909872388,0.4991129165377532,0.2747658547546922,0.10189519053278345,0.23821505725796965
0.61,0.605,0.67375,0.605,0.69625,0.5325,0.85125,0.7775,0.79625,0.72,0.75625,0.69,0.4967376708984375,0.4997894287109375,0.5310546875,0.5002570054820185,0.4992538550359964,0.2747658547546922,0.10189519053278345,0.23821505725796965
0.60975,0.605,0.67375,0.60525,0.6965,0.53225,0.851,0.7767499999999999,0.7957500000000001,0.7197499999999999,0.75575,0.68875,0.4967254638671875,0.499822998046875,0.5310333251953125,0.5002984579791182,0.4993782125353997,0.2739283852700382,0.10067273920367685,0.2395449835554472
0.6095,0.605,0.67375,0.6054999999999999,0.69675,0.532,0.85075,0.7759999999999999,0.79525,0.7195,0.7552500000000001,0.6875,0.496734619140625,0.4998016357421875,0.531005859375,0.5003067484785381,0.4994694080290192,0.2747711978606287,0.10174175961346908,0.23899218130742328
0.60925,0.605,0.67375,0.60575,0.6970000000000001,0.53175,0.8504999999999999,0.7752500000000001,0.79475,0.71925,0.7547499999999999,0.68625,0.496746826171875,0.499847412109375,0.5309661865234375,0.5003564914750578,0.4994362460313394,0.2810495708316479,0.10159090924658748,0.24264531663250322
0.609,0.605,0.67375,0.606,0.6972499999999999,0.5315,0.8502500000000001,0.7745000000000001,0.79425,0.7190000000000001,0.75425,0.685,0.49676513671875,0.4998779296875,0.530938720703125,0.5004228154704174,0.4994279555400235,0.2810495708316479,0.10159090924658748,0.24264531663250322
0.60875,0.605,0.67375,0.60625,0.6975,0.53125,0.85,0.77375,0.79375,0.71875,0.75375,0.68375,0.496807861328125,0.499835205078125,0.530908203125,0.5003647819744778,0.499369922052188,0.2755899768696528,0.10281320118863205,0.2415423497651188
0.60875,0.60475,0.67375,0.606,0.6972499999999999,0.531,0.85,0.7735,0.7935,0.7184999999999999,0.75375,0.68375,0.4968170166015625,0.4998687744140625,0.530908203125,0.5002901674796982,0.4994030840498678,0.2755899768696528,0.10281320118863205,0.2415423497651188
0.60875,0.6045,0.67375,0.60575,0.6970000000000001,0.53075,0.85,0.77325,0.79325,0.71825,0.75375,0.68375,0.4967926025390625,0.4998870849609375,0.53094482421875,0.5002570054820185,0.4994030840498678,0.276859536262688,0.10174288860515843,0.24209963240708807
0.60875,0.60425,0.67375,0.6054999999999999,0.69675,0.5305,0.85,0.773,0.7929999999999999,0.718,0.75375,0.68375,0.4967620849609375,0.4998565673828125,0.5309478759765625,0.5001823909872388,0.4994694080452274,0.2789478798623213,0.10327220556782385,0.24098760241490486
0.60875,0.604,0.67375,0.60525,0.6965,0.53025,0.85,0.77275,0.7927500000000001,0.7177500000000001,0.75375,0.68375,0.4967681884765625,0.4997894287109375,0.5309539794921875,0.5000911954936195,0.4994776985365432,0.2789478798623213,0.10327220556782385,0.24098760241490486
0.60875,0.60375,0.67375,0.605,0.69625,0.53,0.85,0.7725,0.7925,0.7175,0.75375,0.68375,0.4966888427734375,0.499798583984375,0.5309326171875,0.5001326479907192,0.4994528270301793,0.2781130767330616,0.10373056480890744,0.24154720305793442
0.60875,0.60375,0.67375,0.605,0.69625,0.53,0.85,0.7725,0.7925,0.7175,0.75375,0.68375,0.4966705322265625,0.499749755859375,0.530963134765625,0.5001243574912992,0.49933676003829996,0.2781130767330616,0.10373056480890744,0.24154720305793442
0.60875,0.60375,0.67375,0.605,0.69625,0.53,0.85,0.7725,0.7925,0.7175,0.75375,0.68375,0.496685791015625,0.49974365234375,0.5309600830078125,0.5001077764924593,0.49926214554352044,0.2751712447261127,0.104493205336187,0.23955718337657042
0.60875,0.60375,0.67375,0.605,0.69625,0.53,0.85,0.7725,0.7925,0.7175,0.75375,0.68375,0.4966827392578125,0.4997222900390625,0.5309661865234375,0.5000911954936195,0.49920411203947673,0.2751712447261127,0.104493205336187,0.23955718337657042
0.60875,0.60375,0.6735,0.605,0.69625,0.52975,0.85,0.772,0.7922499999999999,0.7175,0.75325,0.68325,0.4966705322265625,0.4997528076171875,0.530963134765625,0.5000829049941995,0.4992206930545248,0.2751712447261127,0.104493205336187,0.23955718337657042
0.60875,0.60375,0.67325,0.605,0.69625,0.5295000000000001,0.85,0.7715000000000001,0.792,0.7175,0.75275,0.6827500000000001,0.4967041015625,0.49976806640625,0.530963134765625,0.5000746144947795,0.4992704360510445,0.27936928875640343,0.10403549123321161,0.2413316037255687
0.60875,0.60375,0.6729999999999999,0.605,0.69625,0.52925,0.85,0.7709999999999999,0.79175,0.7175,0.75225,0.6822499999999999,0.4967315673828125,0.49979248046875,0.53094482421875,0.5000994859930394,0.4993284695469841,0.27936928875640343,0.10403549123321161,0.2413316037255687
0.60875,0.60375,0.6727500000000001,0.605,0.69625,0.529,0.85,0.7705,0.7915000000000001,0.7175,0.7517499999999999,0.68175,0.49676513671875,0.4997894287109375,0.5309173583984375,0.5001906814866588,0.49944453653886345,0.27936928875640343,0.10403516866415752,0.24155340775868614
0.60875,0.60375,0.6725,0.605,0.69625,0.52875,0.85,0.77,0.79125,0.7175,0.75125,0.68125,0.496826171875,0.499810791015625,0.5309173583984375,0.5002735864808583,0.4995523130394269,0.2785184615069083,0.10464679943749346,0.2413303364301598
0.60875,0.60375,0.6725,0.605,0.69625,0.52875,0.85,0.77,0.79125,0.7175,0.75125,0.68125,0.4968658447265625,0.49979248046875,0.5309356689453125,0.500331619976798,0.4997429945179816,0.27895055141528946,0.10464696072202051,0.24055080325774153
0.60875,0.60375,0.6725,0.605,0.69625,0.52875,0.85,0.77,0.79125,0.7175,0.75125,0.68125,0.4968719482421875,0.4997711181640625,0.53096923828125,0.500315038977958,0.49987564250870076,0.27685686990729363,0.1054112159920356,0.2402170314322528
0.60875,0.60375,0.6722499999999999,0.60475,0.69625,0.5285,0.8495,0.77,0.7909999999999999,0.7175,0.7509999999999999,0.68125,0.4968597412109375,0.49976806640625,0.5309844970703125,0.500339910476218,0.50000829049942,0.27685686990729363,0.1054112159920356,0.2402170314322528
0.60875,0.60375,0.672,0.6045,0.69625,0.52825,0.8490000000000001,0.77,0.7907500000000001,0.7175,0.75075,0.68125,0.4968353271484375,0.499755859375,0.53095703125,0.5003067484785381,0.5000994859930394,0.27895055141528946,0.10525858959789143,0.24143578550167819
0.60875,0.60375,0.67175,0.60425,0.69625,0.528,0.8484999999999999,0.77,0.7905,0.7175,0.7505,0.68125,0.4968048095703125,0.4997589111328125,0.5309417724609375,0.5002735864808583,0.500149228989559,0.2802067582410574,0.1057174345900212,0.24265587836216046
0.60875,0.60375,0.6715000000000001,0.604,0.69625,0.5277499999999999,0.848,0.77,0.79025,0.7175,0.7502500000000001,0.68125,0.4967529296875,0.499774169921875,0.530938720703125,0.5002984579791182,0.5000663239953596,0.2802067582410574,0.1057174345900212,0.24265587836216046
0.60875,0.60375,0.67125,0.60375,0.69625,0.5275,0.8475,0.77,0.79,0.7175,0.75,0.68125,0.49674072265625,0.499774169921875,0.5309173583984375,0.500339910476218,0.5000165809988399,0.27013305446062597,0.10403145722257036,0.23579787561223878
0.60875,0.60375,0.67125,0.60375,0.69625,0.5275,0.8475,0.77,0.79,0.7175,0.75,0.68125,0.496771240234375,0.499786376953125,0.530914306640625,0.5003564914750578,0.49995854750290025,0.26803403504426754,0.1046427635293872,0.23513468268172733
0.60875,0.60375,0.67125,0.60375,0.69625,0.5275,0.8475,0.77,0.79,0.7175,0.75,0.68125,0.4967742919921875,0.4998077392578125,0.530950927734375,0.5003647819744778,0.4999253855052205,0.26803403504426754,0.1046427635293872,0.23513468268172733
0.60875,0.60375,0.67125,0.60375,0.69625,0.5275,0.8475,0.77,0.79,0.7175,0.75,0.68125,0.496771240234375,0.499798583984375,0.5309722900390625,0.5003979439721575,0.4999253855052205,0.26888485709618887,0.10448916942808072,0.23503165955567915
0.60875,0.6035,0.6709999999999999,0.60375,0.696,0.52725,0.84775,0.7697499999999999,0.79,0.7175,0.7497499999999999,0.6827500000000001,0.49677734375,0.4998199462890625,0.5309844970703125,0.5003813629733177,0.5001409384901392,0.27222940752158997,0.10341869745754508,0.23359355543611546
0.60875,0.6032500000000001,0.6707500000000001,0.60375,0.69575,0.527,0.848,0.7695000000000001,0.79,0.7175,0.7495,0.68425,0.4967498779296875,0.499847412109375,0.5309722900390625,0.500315038977958,0.5003979439802616,0.27222940752158997,0.10341869745754508,0.23359355543611546
0.60875,0.603,0.6705,0.60375,0.6955,0.5267499999999999,0.8482500000000001,0.76925,0.79,0.7175,0.74925,0.6857500000000001,0.496722412109375,0.4998138427734375,0.5309417724609375,0.5002570054820185,0.5006300779640203,0.27392037061113356,0.10250100937075057,0.23338061616242028
0.60875,0.60275,0.67025,0.60375,0.69525,0.5265,0.8484999999999999,0.769,0.79,0.7175,0.7490000000000001,0.6872499999999999,0.4966766357421875,0.4998138427734375,0.5309112548828125,0.5002735864808583,0.5008456309570429,0.2730748916651487,0.10265331129837561,0.2336049323563482
0.60875,0.603,0.67,0.60425,0.69475,0.52575,0.8482500000000001,0.7685,0.7905,0.71925,0.7497499999999999,0.69325,0.49666748046875,0.499810791015625,0.53089599609375,0.5002652959814383,0.5011109269384814,0.2730748916651487,0.10265331129837561,0.2336049323563482
0.60875,0.6035,0.67,0.60475,0.6945,0.52525,0.84775,0.76825,0.7909999999999999,0.721,0.75075,0.6977500000000001,0.49661865234375,0.4998016357421875,0.530877685546875,0.500174100487819,0.5012104129153125,0.27139193283936214,0.10096862610460619,0.23218988207859678
0.60875,0.604,0.67,0.60525,0.6942499999999999,0.52475,0.84725,0.768,0.7915000000000001,0.72275,0.7517499999999999,0.7022499999999999,0.4966400146484375,0.499774169921875,0.530877685546875,0.5001326479907192,0.5012352844054683,0.2688741760818898,0.10096878738913323,0.23096869645619947
0.60875,0.6045,0.67,0.60575,0.6940000000000001,0.52425,0.84675,0.76775,0.792,0.7245,0.75275,0.70675,0.496630859375,0.4997711181640625,0.53089599609375,0.5000911954936195,0.501268446403148,0.27097319549824816,0.10081470943424563,0.2306376659981576
0.60875,0.605,0.67,0.60625,0.69375,0.52375,0.84625,0.7675,0.7925,0.72625,0.75375,0.71125,0.496600341796875,0.499749755859375,0.530950927734375,0.4999668380023202,0.501276736894464,0.26888485709618887,0.09959096593145761,0.2300940439315327
0.60875,0.605,0.67,0.60625,0.69375,0.52375,0.84625,0.7675,0.7925,0.72625,0.75375,0.71125,0.496575927734375,0.49976806640625,0.530950927734375,0.499834190011601,0.5012269938979442,0.26594301989166613,0.1000490026034871,0.2292032992785496
0.60875,0.605,0.67,0.60625,0.69375,0.52375,0.84625,0.7675,0.7925,0.72625,0.75375,0.71125,0.496563720703125,0.4997344970703125,0.5309326171875,0.4998176090127611,0.5010860554159092,0.26594301989166613,0.1000490026034871,0.2292032992785496
0.60875,0.605,0.67,0.60625,0.69375,0.52375,0.84625,0.7675,0.7925,0.72625,0.75375,0.71125,0.496539306640625,0.4997711181640625,0.530914306640625,0.49980102801392123,0.50096169792461,0.26762330716448446,0.0979075729113696,0.22688791762253485
0.6085,0.60425,0.6705,0.6065,0.69375,0.525,0.84875,0.76725,0.795,0.7284999999999999,0.7552500000000001,0.71475,0.49649658203125,0.499749755859375,0.530902099609375,0.49989222350754065,0.5008124689350509,0.26553229201188305,0.09836544640140701,0.22622644829789193
0.6082500000000001,0.6035,0.6709999999999999,0.60675,0.69375,0.52625,0.85125,0.767,0.7975,0.73075,0.7567499999999999,0.71825,0.4964996337890625,0.4997467041015625,0.5308380126953125,0.49999170950058003,0.5006881114437517,0.25589601604819534,0.09606784015808525,0.22081169314856827
0.608,0.60275,0.6715000000000001,0.607,0.69375,0.5275,0.85375,0.7667499999999999,0.8,0.733,0.75825,0.72175,0.496478271484375,0.4997222900390625,0.530828857421875,0.5001243574912992,0.5005886254507123,0.25589601604819534,0.09606784015808525,0.22081169314856827
0.60775,0.602,0.672,0.6072500000000001,0.69375,0.52875,0.85625,0.7665000000000001,0.8025,0.7352500000000001,0.7597499999999999,0.7252500000000001,0.4964599609375,0.4997894287109375,0.530816650390625,0.5002155529849187,0.5005803349593965,0.2537916535259005,0.09683128710800008,0.21892988843898978
0.6075,0.60125,0.6725,0.6075,0.69375,0.53,0.85875,0.76625,0.805,0.7375,0.76125,0.72875,0.496429443359375,0.4997894287109375,0.530853271484375,0.5002652959814383,0.500630077947812,0.2525407846084952,0.09667769490415863,0.21638120316552284
0.6075,0.60125,0.6725,0.6075,0.69375,0.53,0.85875,0.76625,0.805,0.7375,0.76125,0.72875,0.4964324951171875,0.499786376953125,0.530865478515625,0.5001906814866588,0.5006632399454918,0.2496096284182715,0.09606477764953635,0.2139438225973382
0.6075,0.60125,0.6725,0.6075,0.69375,0.53,0.85875,0.76625,0.805,0.7375,0.76125,0.72875,0.4964263916015625,0.499786376953125,0.530859375,0.5000829049941995,0.5005886254507123,0.24918555316879498,0.09621788599979664,0.213053679348924
0.608,0.601,0.6727500000000001,0.60775,0.6942499999999999,0.5305,0.8602500000000001,0.7667499999999999,0.8059999999999999,0.73925,0.76275,0.73175,0.4964141845703125,0.499786376953125,0.530841064453125,0.4999502570034803,0.5005057204565128,0.24918555316879498,0.09621788599979664,0.213053679348924
0.6085,0.60075,0.6729999999999999,0.608,0.69475,0.531,0.86175,0.76725,0.807,0.741,0.76425,0.7347499999999999,0.496441650390625,0.4997283935546875,0.53082275390625,0.49987564250870076,0.5002818769721742,0.2508658404416133,0.09453578325592502,0.21362003983538447
0.609,0.6004999999999999,0.67325,0.6082500000000001,0.69525,0.5315,0.8632500000000001,0.76775,0.8079999999999999,0.74275,0.76575,0.73775,0.496429443359375,0.499700927734375,0.5307861328125,0.4998258995121811,0.49991709499769643,0.2508658404416133,0.09453578325592502,0.21362003983538447
0.6095,0.60025,0.6735,0.6085,0.69575,0.532,0.8647499999999999,0.76825,0.809,0.7445,0.76725,0.74075,0.496417236328125,0.4997467041015625,0.5307586669921875,0.4998507710104409,0.49950257004290716,0.2517086530322038,0.09453578325592502,0.2138421775148595
0.61,0.6,0.67375,0.60875,0.69625,0.5325,0.86625,0.76875,0.81,0.74625,0.76875,0.74375,0.4964202880859375,0.4997955322265625,0.530731201171875,0.49995854750290025,0.49911291656206547,0.2517139909405664,0.0948407096802292,0.21395701915190793
0.61,0.6,0.67375,0.60875,0.69625,0.5325,0.86625,0.76875,0.81,0.74625,0.76875,0.74375,0.4964111328125,0.4997955322265625,0.5307647705078125,0.5000414524970997,0.49867352010091226,0.24793201269842138,0.0968261260031345,0.21041401376048144
0.61,0.6,0.67375,0.60875,0.69625,0.5325,0.86625,0.76875,0.81,0.74625,0.76875,0.74375,0.4963897705078125,0.4998382568359375,0.5307891845703125,0.5001409384901392,0.4983419001160102,0.2441580439176073,0.09804922436781432,0.2095237632685952
0.61,0.6,0.67375,0.60875,0.69625,0.5325,0.86625,0.76875,0.81,0.74625,0.76875,0.74375,0.4964263916015625,0.4998291015625,0.530841064453125,0.5002404244831785,0.498068313643256,0.2441580439176073,0.09804922436781432,0.2095237632685952
0.61,0.6,0.67375,0.60875,0.69625,0.5325,0.86625,0.76875,0.81,0.74625,0.76875,0.74375,0.4964263916015625,0.4998046875,0.5308929443359375,0.5002735864808583,0.49787763214849307,0.24541959384931167,0.09942623940285472,0.20974118503904893
0.60975,0.59975,0.67325,0.6082500000000001,0.69575,0.53225,0.86575,0.7685,0.80975,0.74575,0.7685,0.74275,0.496429443359375,0.4997650146484375,0.53101806640625,0.5002155529849187,0.49779472717050177,0.2462677495458386,0.09896820273082521,0.2124033261956798
0.6095,0.5995,0.6727500000000001,0.60775,0.69525,0.532,0.8652500000000001,0.76825,0.8095,0.7452500000000001,0.76825,0.74175,0.49642333984375,0.49976806640625,0.53106689453125,0.5002072624854987,0.4978030176618176,0.2462677495458386,0.09896820273082521,0.2124033261956798
0.60925,0.59925,0.6722499999999999,0.6072500000000001,0.69475,0.53175,0.8647499999999999,0.768,0.80925,0.7447499999999999,0.768,0.74075,0.496466064453125,0.49970703125,0.53115234375,0.500174100487819,0.4978693416571772,0.25212204726738124,0.10049961449487727,0.21672185119010481
0.609,0.599,0.67175,0.60675,0.6942499999999999,0.5315,0.86425,0.76775,0.809,0.74425,0.76775,0.7397499999999999,0.496484375,0.49970703125,0.531170654296875,0.5002155529849187,0.4980185706305281,0.25212204726738124,0.10049961449487727,0.21672185119010481
0.60875,0.59875,0.67125,0.60625,0.69375,0.53125,0.86375,0.7675,0.80875,0.74375,0.7675,0.73875,0.49652099609375,0.49971923828125,0.53114013671875,0.5002321339837585,0.49817609009519487,0.26300919734604805,0.09912857267973275,0.22757087489410988
0.60875,0.59875,0.67125,0.60625,0.69375,0.53125,0.86375,0.7675,0.80875,0.74375,0.7675,0.73875,0.4965240478515625,0.4997772216796875,0.5310943603515625,0.5002321339837585,0.49837506208127363,0.26300919734604805,0.09912857267973275,0.22757087489410988
0.60875,0.59875,0.67125,0.60625,0.69375,0.53125,0.86375,0.7675,0.80875,0.74375,0.7675,0.73875,0.4965667724609375,0.499798583984375,0.5310638427734375,0.5001409384901392,0.49854916256098847,0.26468947942129256,0.09851807279555119,0.2304511359551697
0.6085,0.59875,0.67125,0.6065,0.69375,0.531,0.8625,0.767,0.8077500000000001,0.7425,0.7667499999999999,0.73675,0.496527099609375,0.49979248046875,0.530963134765625,0.49999170950058003,0.4986735200603918,0.267180541439378,0.10004980902612234,0.2373243119040488
0.6082500000000001,0.59875,0.67125,0.60675,0.69375,0.53075,0.86125,0.7665000000000001,0.80675,0.74125,0.7659999999999999,0.7347499999999999,0.4965606689453125,0.4998016357421875,0.5309234619140625,0.4998258995121811,0.49882274906615903,0.2696982981968504,0.10066224622209353,0.2385399489034061
0.608,0.59875,0.67125,0.607,0.69375,0.5305,0.86,0.7659999999999999,0.8057500000000001,0.74,0.7652500000000001,0.73275,0.49656982421875,0.4998382568359375,0.530950927734375,0.49970154202088185,0.4990134305690261,0.2696982981968504,0.10066224622209353,0.2385399489034061
0.60775,0.59875,0.67125,0.6072500000000001,0.69375,0.53025,0.85875,0.7655,0.80475,0.73875,0.7645000000000001,0.73075,0.4966033935546875,0.499822998046875,0.5309539794921875,0.4996435085249422,0.4991294975528013,0.2722160549543227,0.10050962172541439,0.2405335307502944
0.6075,0.59875,0.67125,0.6075,0.69375,0.53,0.8575,0.765,0.80375,0.7375,0.76375,0.72875,0.49664306640625,0.4998291015625,0.530963134765625,0.49970983252030177,0.4993201790475642,0.284423492746978,0.10280593769251979,0.24141040805130376
0.6075,0.59875,0.67125,0.6075,0.69375,0.53,0.8575,0.765,0.80375,0.7375,0.76375,0.72875,0.4966522216796875,0.4998779296875,0.531011962890625,0.49987564250870076,0.4995606035307427,0.26559103499174086,0.09913083256057646,0.22366740807139687
0.6075,0.59875,0.67125,0.6075,0.69375,0.53,0.8575,0.765,0.80375,0.7375,0.76375,0.72875,0.4965850830078125,0.499896240234375,0.53101806640625,0.49995854750290025,0.4997595755168215,0.2630679351283321,0.09882493653164497,0.223000528208446
0.6075,0.59875,0.67125,0.6075,0.69375,0.53,0.8575,0.765,0.80375,0.7375,0.76375,0.72875,0.4965240478515625,0.499847412109375,0.5310394287109375,0.5000248714982598,0.4999170950058005,0.2630679351283321,0.09882493653164497,0.223000528208446
0.60775,0.59875,0.6715000000000001,0.6075,0.6940000000000001,0.52975,0.85675,0.765,0.80325,0.7375,0.76375,0.72875,0.4964874267578125,0.499761962890625,0.531005859375,0.5001409384901392,0.500157519488979,0.25845115375692745,0.09897659332116183,0.22079540686050175
0.608,0.59875,0.67175,0.6075,0.6942499999999999,0.5295000000000001,0.856,0.765,0.8027500000000001,0.7375,0.76375,0.72875,0.4964019775390625,0.4997650146484375,0.5309661865234375,0.5002238434843386,0.49999170950058003,0.25762436008899864,0.09805712920710476,0.21770138362485628
0.6082500000000001,0.59875,0.672,0.6075,0.6945,0.52925,0.8552500000000001,0.765,0.8022499999999999,0.7375,0.76375,0.72875,0.49635009765625,0.4997711181640625,0.5309326171875,0.5002072624854987,0.4997098325284059,0.25762436008899864,0.09805712920710476,0.21770138362485628
0.6082500000000001,0.59875,0.6722499999999999,0.6075,0.69475,0.529,0.8554999999999999,0.7652500000000001,0.802,0.7382500000000001,0.7635,0.7297499999999999,0.4963226318359375,0.4997833251953125,0.5309051513671875,0.5001906814866588,0.4992538550522046,0.2584671726795891,0.09790337571873628,0.21614551986449035
0.6082500000000001,0.59875,0.6725,0.6075,0.695,0.52875,0.85575,0.7655,0.80175,0.7390000000000001,0.76325,0.73075,0.4963287353515625,0.4997894287109375,0.5308349609375,0.5001326479907192,0.4986983915829639,0.25805377844441163,0.09790402085684446,0.21470914706111016
0.608,0.59875,0.6725,0.6075,0.695,0.52875,0.85675,0.76575,0.802,0.7397499999999999,0.763,0.73175,0.496331787109375,0.4998565673828125,0.530804443359375,0.49985906150986087,0.49772011265141,0.27612085186697216,0.09912824821321364,0.2160429151982646
0.60775,0.59875,0.6725,0.6075,0.695,0.52875,0.85775,0.7659999999999999,0.8022499999999999,0.7404999999999999,0.76275,0.73275,0.4963592529296875,0.4998565673828125,0.53077392578125,0.4995606035307427,0.497056872697814,0.278214533374968,0.10035150786242052,0.21693088413785228
0.6075,0.59875,0.6725,0.6075,0.695,0.52875,0.85875,0.76625,0.8025,0.74125,0.7625,0.73375,0.4964385986328125,0.4998321533203125,0.5307647705078125,0.4993201790475642,0.49638534225290226,0.278214533374968,0.10035150786242052,0.21693088413785228
0.6075,0.59875,0.6725,0.6075,0.695,0.52875,0.85875,0.76625,0.8025,0.74125,0.7625,0.73375,0.4964874267578125,0.4998046875,0.5308013916015625,0.49905488306612583,0.4957469738056703,0.2824419488951876,0.10509111553993364,0.214486781576874
0.6075,0.59875,0.6725,0.6075,0.695,0.52875,0.85875,0.76625,0.8025,0.74125,0.7625,0.73375,0.4965606689453125,0.4998199462890625,0.5308685302734375,0.4988642015875711,0.4953407393421969,0.28495436774429733,0.10677370213738639,0.2132571097014266
0.6082500000000001,0.59925,0.6727500000000001,0.60775,0.6955,0.52925,0.86,0.768,0.8022499999999999,0.7395,0.762,0.73075,0.4966278076171875,0.4998138427734375,0.5309295654296875,0.49890565409277493,0.4954402253028199,0.28160180785756533,0.10845467399210364,0.21281077358556158
0.609,0.59975,0.6729999999999999,0.608,0.696,0.52975,0.86125,0.7697499999999999,0.802,0.73775,0.7615000000000001,0.72775,0.4967193603515625,0.4997802734375,0.5310150146484375,0.49887249209509515,0.4955645828022232,0.2811990894391131,0.11411196785894621,0.20991595194511695
0.60975,0.60025,0.67325,0.6082500000000001,0.6965,0.53025,0.8625,0.7715000000000001,0.80175,0.736,0.7609999999999999,0.7247499999999999,0.4967529296875,0.49976806640625,0.53104248046875,0.49882274909857544,0.49584645976629327,0.2774571637011961,0.12802602005931335,0.20510990934154158
0.6104999999999999,0.60075,0.6735,0.6085,0.6970000000000001,0.53075,0.86375,0.77325,0.8015000000000001,0.73425,0.7605,0.72175,0.496759033203125,0.499725341796875,0.5309967041015625,0.49882274909857544,0.49621953226450327,0.277894586320366,0.13215512785264488,0.20410124593489237
0.61125,0.60125,0.67375,0.60875,0.6975,0.53125,0.865,0.775,0.80125,0.7325,0.76,0.71875,0.4967742919921875,0.499725341796875,0.5309417724609375,0.4987812966095798,0.49640192326795035,0.277894586320366,0.13215512785264488,0.20410124593489237
0.61125,0.60125,0.67375,0.60875,0.6975,0.53125,0.865,0.775,0.80125,0.7325,0.76,0.71875,0.49674072265625,0.499700927734375,0.5308990478515625,0.4986486486188606,0.4963604708113711,0.2867334401060537,0.13995417398065907,0.20218924132338384
0.61125,0.60125,0.67375,0.60875,0.6975,0.53125,0.865,0.775,0.80125,0.7325,0.76,0.71875,0.496685791015625,0.4996917724609375,0.53082275390625,0.4985408721182972,0.49625269429459945,0.2867334401060537,0.13995417398065907,0.20218924132338384
0.61125,0.60125,0.67375,0.60875,0.6975,0.53125,0.865,0.775,0.80125,0.7325,0.76,0.71875,0.4966827392578125,0.4996429443359375,0.5308197021484375,0.49841651463510206,0.49602885083457315,0.28549325220294747,0.1427062648414852,0.2005170800783123
0.61175,0.602,0.674,0.609,0.6990000000000001,0.53325,0.86625,0.778,0.79975,0.73125,0.7595000000000001,0.71325,0.496710205078125,0.4996063232421875,0.5308349609375,0.49830873815074683,0.4958298788484944,0.28718154893709663,0.1456109820964555,0.19974317403395933
0.61225,0.60275,0.67425,0.60925,0.7005,0.53525,0.8675,0.7809999999999999,0.79825,0.73,0.759,0.7077500000000001,0.4967315673828125,0.4995513916015625,0.530865478515625,0.4982921571356987,0.49567235931899484,0.28721092042702556,0.14775047637424837,0.19385309829285763
0.61275,0.6035,0.6745,0.6095,0.7020000000000001,0.53725,0.86875,0.784,0.79675,0.72875,0.7585,0.7022499999999999,0.4968292236328125,0.499517822265625,0.5308990478515625,0.4983253191333785,0.4956060353236353,0.283442289554574,0.14851505231585257,0.19307308147340826
0.6132500000000001,0.60425,0.67475,0.60975,0.7034999999999999,0.53925,0.87,0.787,0.79525,0.7275,0.758,0.69675,0.4969024658203125,0.49947509765625,0.5309356689453125,0.4984662576316217,0.4955811638496877,0.283442289554574,0.14851505231585257,0.19307308147340826
0.61375,0.605,0.675,0.61,0.705,0.54125,0.87125,0.79,0.79375,0.72625,0.7575,0.69125,0.49697265625,0.49951171875,0.5309783935546875,0.4986983916153803,0.4958547503224419,0.2809432232727316,0.14943225654906592,0.18861904699214227
0.61375,0.605,0.675,0.61,0.705,0.54125,0.87125,0.79,0.79375,0.72625,0.7575,0.69125,0.4972198486328125,0.4995208740234375,0.530950927734375,0.49896368758871457,0.4964102137592662,0.27467819767140583,0.17023170459622403,0.19731514958254298
0.61425,0.60575,0.675,0.61025,0.70575,0.54375,0.87175,0.7907500000000001,0.79425,0.7254999999999999,0.75725,0.6859999999999999,0.497381591796875,0.4995147705078125,0.530975341796875,0.4992704360672527,0.4977201126838263,0.3360086233571756,0.21199387755586477,0.23469945993351007
0.61475,0.6065,0.675,0.6104999999999999,0.7065,0.54625,0.87225,0.7915000000000001,0.79475,0.7247499999999999,0.757,0.6807500000000001,0.497393798828125,0.4994781494140625,0.5309661865234375,0.4995937655365266,0.49924556457709696,0.33895045536412444,0.21734559796282993,0.23558329824707766
0.61525,0.6072500000000001,0.675,0.61075,0.7072499999999999,0.54875,0.87275,0.7922499999999999,0.79525,0.7240000000000001,0.7567499999999999,0.6755,0.497479248046875,0.4994903564453125,0.5309722900390625,0.4998010280220253,0.5008953739697709,0.33895045536412444,0.21734559796282993,0.23558329824707766
0.61575,0.608,0.675,0.611,0.708,0.55125,0.8732500000000001,0.7929999999999999,0.7957500000000001,0.7232500000000001,0.7565000000000001,0.67025,0.4975128173828125,0.499456787109375,0.53092041015625,0.499834190011601,0.502263306333542,0.3490588685428474,0.2191798413497995,0.23482308221745363
0.61525,0.6075,0.67425,0.6104999999999999,0.7084999999999999,0.55125,0.8732500000000001,0.79175,0.7972499999999999,0.722,0.7559999999999999,0.66875,0.49737548828125,0.4994232177734375,0.5310272216796875,0.5000663239953596,0.5037721772441809,0.3490588685428474,0.2191798413497995,0.23482308221745363
0.61425,0.60625,0.6735,0.60975,0.70825,0.54875,0.87275,0.78975,0.79825,0.7215,0.75575,0.6725,0.4972381591796875,0.4994049072265625,0.531048583984375,0.5003730724901059,0.504750456191943,0.3498963432250753,0.21550844955690843,0.23195336746542108
0.6132500000000001,0.605,0.6727500000000001,0.609,0.708,0.54625,0.87225,0.7877500000000001,0.79925,0.721,0.7555,0.67625,0.4972381591796875,0.4994232177734375,0.531195068359375,0.5006964019593798,0.5057038636009249,0.3482160559522569,0.2113783740564146,0.2284168149067013
0.61225,0.60375,0.672,0.6082500000000001,0.7077500000000001,0.54375,0.87175,0.7857500000000001,0.80025,0.7204999999999999,0.7552500000000001,0.68,0.497186279296875,0.4994140625,0.5313323974609375,0.5010777649245933,0.5065329135105033,0.3540596778570744,0.1927229400487368,0.23580541630029642
0.61125,0.6025,0.67125,0.6075,0.7075,0.54125,0.87125,0.78375,0.80125,0.72,0.755,0.68375,0.4970428466796875,0.4994964599609375,0.5314117431640625,0.5014674183811227,0.5076272594015202,0.3540596778570744,0.1927229400487368,0.23580541630029642
0.61125,0.6025,0.67125,0.6075,0.7075,0.54125,0.87125,0.78375,0.80125,0.72,0.755,0.68375,0.49686279296875,0.4996368408203125,0.531439208984375,0.5014922898793827,0.5083319518765281,0.37414834763565324,0.18798866045301138,0.2631258352102331
0.61125,0.6025,0.67125,0.6075,0.7075,0.54125,0.87125,0.78375,0.80125,0.72,0.755,0.68375,0.496539306640625,0.4995330810546875,0.5312957763671875,0.5011440888875366,0.5087630578139491,0.38083744848645557,0.18661309887617947,0.26923747386187447
0.61125,0.6025,0.67125,0.6075,0.7075,0.54125,0.87125,0.78375,0.80125,0.72,0.755,0.68375,0.496185302734375,0.4994232177734375,0.53106689453125,0.5007378544240632,0.5089703202913438,0.38083744848645557,0.18661309887617947,0.26923747386187447
0.61025,0.60175,0.6705,0.607,0.70575,0.539,0.8684999999999999,0.7835,0.8022499999999999,0.722,0.75625,0.69575,0.49595947265625,0.499481201171875,0.5308380126953125,0.5002735864646501,0.5088625438394049,0.40934090199881956,0.18050115910730546,0.28969584631214745
0.60925,0.601,0.66975,0.6065,0.7040000000000001,0.53675,0.86575,0.78325,0.80325,0.7240000000000001,0.7575,0.7077500000000001,0.4958740234375,0.49945068359375,0.5307830810546875,0.499850771018545,0.5083651139714571,0.42275648984925773,0.1766794008011139,0.2973703363723465
0.6082500000000001,0.60025,0.669,0.606,0.7022499999999999,0.5345,0.863,0.7829999999999999,0.80425,0.726,0.75875,0.7197499999999999,0.4958740234375,0.49937744140625,0.530718994140625,0.49954402253190283,0.5078096504698001,0.42275648984925773,0.1766794008011139,0.2973703363723465
0.6072500000000001,0.5995,0.66825,0.6054999999999999,0.7005,0.53225,0.8602500000000001,0.7827500000000001,0.80525,0.728,0.76,0.73175,0.49605712890625,0.4995025634765625,0.53084716796875,0.49929530756551255,0.5074282874802742,0.43700420927598743,0.17270566503381643,0.3053858803000711
0.60625,0.59875,0.6675,0.605,0.69875,0.53,0.8575,0.7825,0.80625,0.73,0.76125,0.74375,0.496240234375,0.499627685546875,0.530975341796875,0.49904659259912226,0.5070469244907484,0.4642461076590731,0.16307689338305503,0.32616639461708086
0.60625,0.59875,0.6675,0.605,0.69875,0.53,0.8575,0.7825,0.80625,0.73,0.76125,0.74375,0.4962890625,0.49959716796875,0.5310333251953125,0.49886420161998746,0.5071381199600555,0.4751199051704727,0.15864512094372804,0.33538625469894806
0.60625,0.59875,0.6675,0.605,0.69875,0.53,0.8575,0.7825,0.80625,0.73,0.76125,0.74375,0.496240234375,0.49969482421875,0.5309661865234375,0.4985491626258212,0.5073205108986698,0.4751199051704727,0.15864512094372804,0.33538625469894806
0.60525,0.5985,0.66675,0.6035,0.6972499999999999,0.52825,0.857,0.78325,0.8075,0.733,0.76275,0.7465,0.4961761474609375,0.4997772216796875,0.5311492919921875,0.49815950917739593,0.5075775163239595,0.5065251329879836,0.14519556059140243,0.3668242965331854
0.60425,0.5982500000000001,0.6659999999999999,0.602,0.69575,0.5265,0.8565,0.784,0.80875,0.736,0.76425,0.74925,0.4962371826171875,0.4998779296875,0.5318389892578125,0.4978693416571772,0.5082075943122921,0.6162367540219789,0.15163922278565103,0.4715055356325611
0.6032500000000001,0.598,0.66525,0.6004999999999999,0.6942499999999999,0.52475,0.856,0.78475,0.81,0.7390000000000001,0.76575,0.752,0.4962921142578125,0.5000335693359375,0.53282470703125,0.4973553306769322,0.5101061187037726,0.6300417025260281,0.15118328470993825,0.4878227413612505
0.6022500000000001,0.59775,0.6645,0.599,0.6927500000000001,0.523,0.8554999999999999,0.7855,0.81125,0.742,0.76725,0.7547499999999999,0.49642333984375,0.5002899169921875,0.5349945068359375,0.49641850425058204,0.514127010687429,0.6476393154840955,0.1519512533190055,0.5040287552356315
0.60125,0.5975,0.66375,0.5975,0.69125,0.52125,0.855,0.78625,0.8125,0.745,0.76875,0.7575,0.4967864990234375,0.50032958984375,0.5401092529296875,0.495191510368846,0.5252031178476481,0.685752319035317,0.14798429529677412,0.5434346639144
0.60125,0.5975,0.66375,0.5975,0.69125,0.52125,0.855,0.78625,0.8125,0.745,0.76875,0.7575,0.497137451171875,0.5005126953125,0.5477783203125,0.49483501885326775,0.551658100986147,0.685752319035317,0.14798429529677412,0.5434346639144
0.605,0.5982500000000001,0.66625,0.5975,0.6955,0.523,0.8640000000000001,0.7885,0.8177500000000001,0.75075,0.7725,0.7585,0.498065185546875,0.5012969970703125,0.554498291015625,0.4936577679194268,0.5928618838002455,0.7037499788588683,0.15043485050329417,0.5630831680093433
0.60875,0.599,0.66875,0.5975,0.69975,0.52475,0.873,0.7907500000000001,0.823,0.7565000000000001,0.77625,0.7595000000000001,0.4989990234375,0.5020263671875,0.5609222412109375,0.49270436044561217,0.632797220211196,0.7175522610075232,0.1564007860309581,0.5825085068501051
0.6125,0.59975,0.67125,0.5975,0.7040000000000001,0.5265,0.882,0.7929999999999999,0.82825,0.76225,0.78,0.7605,0.5001953125,0.503106689453125,0.56842041015625,0.4924805169855858,0.6779058289085222,0.7476478821253449,0.17735027612489757,0.6259308763167889
0.61625,0.6004999999999999,0.67375,0.5975,0.70825,0.52825,0.8909999999999999,0.79525,0.8334999999999999,0.768,0.78375,0.7615000000000001,0.501092529296875,0.505377197265625,0.5712738037109375,0.4904493446033861,0.7229978559748891,0.7509764136280844,0.18300563267995054,0.6320543110494233
0.62,0.60125,0.67625,0.5975,0.7125,0.53,0.9,0.7975,0.83875,0.77375,0.7875,0.7625,0.501141357421875,0.507647705078125,0.5724090576171875,0.48316199560514683,0.7560935299834891,0.7408840193720231,0.19461658927068115,0.6308865971624013
0.62,0.60125,0.67625,0.5975,0.7125,0.53,0.9,0.7975,0.83875,0.77375,0.7875,0.7625,0.50072021484375,0.5112396240234375,0.572869873046875,0.475476702958914,0.7761565378990214,0.553647444759899,0.3009643067152253,0.47052620927350114
0.62,0.60125,0.67625,0.5975,0.7125,0.53,0.9,0.7975,0.83875,0.77375,0.7875,0.7625,0.4991485595703125,0.5127593994140625,0.57503662109375,0.46771679556667456,0.7956475028862515,0.525613462107176,0.3035545741689354,0.43968539091474323
0.62,0.60125,0.67625,0.5975,0.7125,0.53,0.9,0.7975,0.83875,0.77375,0.7875,0.7625,0.4965576171875,0.51708984375,0.5726654052734375,0.46840490699421805,0.8042364578540895,0.20797895365124835,0.23561862825433919,0.19385273380524
0.62,0.60125,0.67625,0.5975,0.7125,0.53,0.9,0.7975,0.83875,0.77375,0.7875,0.7625,0.492401123046875,0.519488525390625,0.57010498046875,0.47597413289169455,0.8045183362444805,0.16898840732084933,0.21894796353399348,0.16476594201233874
0.62125,0.60575,0.679,0.60175,0.7155,0.53675,0.9055,0.804,0.8420000000000001,0.7795000000000001,0.79,0.7665000000000001,0.4966583251953125,0.5160125732421875,0.5607666015625,0.5071878628431179,0.7875891352133303,0.14176519941339347,0.2064072130296145,0.13690312206929614
0.6225,0.61025,0.68175,0.606,0.7184999999999999,0.5435,0.9109999999999999,0.8105,0.8452500000000001,0.78525,0.7925,0.7705,0.5033233642578125,0.509490966796875,0.548541259765625,0.5338915613694201,0.7544934612047303,0.11661698773587743,0.19417284051028322,0.1120357601997889
0.62375,0.61475,0.6845,0.61025,0.7215,0.55025,0.9165000000000001,0.8170000000000001,0.8484999999999999,0.7909999999999999,0.795,0.7745000000000001,0.516607666015625,0.5063446044921875,0.5384613037109375,0.5437738366455829,0.6713065877071911,0.09817389063425151,0.17261220918898404,0.09239009279982313
0.625,0.61925,0.6872499999999999,0.6145,0.7245,0.557,0.922,0.8234999999999999,0.85175,0.79675,0.7975,0.7785,0.53057861328125,0.4999237060546875,0.530731201171875,0.5448930540429636,0.5915685648209926,0.09443730280469714,0.16909440959993435,0.07207921026400606
0.62775,0.62575,0.6892499999999999,0.619,0.727,0.56325,0.927,0.8292499999999999,0.8545,0.802,0.8,0.7829999999999999,0.5467681884765625,0.4950927734375,0.5254547119140625,0.5444122051576475,0.5080583614489745,0.09443730280469714,0.16909440959993435,0.07207921026400606
0.62925,0.62775,0.6884999999999999,0.61925,0.7265,0.56275,0.9265000000000001,0.8284999999999999,0.8540000000000001,0.8015000000000001,0.8,0.7835,0.554901123046875,0.49632568359375,0.5268768310546875,0.5293815303332956,0.43859226735219703,0.07603960131323567,0.138974025140201,0.038654028200583605
0.63075,0.62975,0.6877500000000001,0.6195,0.726,0.56225,0.9259999999999999,0.8277500000000001,0.8534999999999999,0.8009999999999999,0.8,0.784,0.560394287109375,0.497381591796875,0.5324615478515625,0.5233294653191117,0.3827972067259784,0.06556585066732017,0.13484491734686946,0.027654539802413027
0.63225,0.6317499999999999,0.687,0.61975,0.7254999999999999,0.56175,0.9255,0.8270000000000001,0.853,0.8005,0.8,0.7845,0.55994873046875,0.49627685546875,0.533782958984375,0.5337174616028658,0.37371910972336464,0.06556585066732017,0.13484491734686946,0.027654539802413027
0.63375,0.63375,0.68625,0.62,0.725,0.56125,0.925,0.82625,0.8525,0.8,0.8,0.785,0.5573394775390625,0.494976806640625,0.53475341796875,0.5407478052082316,0.3577101544600967,0.07353786347842498,0.1082408790179773,0.013555914827884926
0.63375,0.63375,0.68625,0.62,0.725,0.56125,0.925,0.82625,0.8525,0.8,0.8,0.785,0.5506378173828125,0.4937255859375,0.534869384765625,0.5406151570878469,0.33951250689613277,0.08569991085848964,0.11527260357249741,0.0021127139237582513
0.63375,0.63375,0.68625,0.62,0.725,0.56125,0.925,0.82625,0.8525,0.8,0.8,0.785,0.5418975830078125,0.49300537109375,0.533447265625,0.5332697743910657,0.3156856129408961,0.0890551422981898,0.11496703011262002,0.0025597502764116344
0.63375,0.63375,0.68625,0.62,0.725,0.56125,0.925,0.82625,0.8525,0.8,0.8,0.785,0.52958984375,0.494842529296875,0.5310882568359375,0.5221024719398296,0.29010113249271885,0.08653471398774924,0.11573144666716216,0.0018901395600797945
0.63375,0.63375,0.68625,0.62,0.725,0.56125,0.925,0.82625,0.8525,0.8,0.8,0.785,0.51553955078125,0.49813232421875,0.5277801513671875,0.5127673691229295,0.26960702084408,0.08653471398774924,0.11573144666716216,0.0018901395600797945
0.634,0.63375,0.687,0.62075,0.725,0.56125,0.92475,0.8270000000000001,0.85225,0.8005,0.80025,0.7855,0.49903564453125,0.5031951904296875,0.52237548828125,0.512734206898335,0.2680484076987065,0.08821766761596193,0.1149671932946121,0.001332731450257501
0.63425,0.63375,0.6877500000000001,0.6214999999999999,0.725,0.56125,0.9245,0.8277500000000001,0.852,0.8009999999999999,0.8005,0.7859999999999999,0.4831695556640625,0.5069305419921875,0.516375732421875,0.5217625608233881,0.29483501334248174,0.08863106185113939,0.11573144666716216,0.002225517233899092
0.6345000000000001,0.63375,0.6884999999999999,0.62225,0.725,0.56125,0.92425,0.8284999999999999,0.85175,0.8015000000000001,0.8007500000000001,0.7865000000000001,0.4702850341796875,0.508026123046875,0.5106964111328125,0.5343889917398219,0.3334521588464023,0.08653738034314357,0.1157316079516892,0.002560214998124055
0.63475,0.63375,0.6892499999999999,0.623,0.725,0.56125,0.924,0.8292499999999999,0.8515,0.802,0.8009999999999999,0.787,0.461822509765625,0.505487060546875,0.505084228515625,0.5474796907696466,0.37478858809523335,0.08653738034314357,0.1157316079516892,0.002560214998124055
0.635,0.63375,0.69,0.62375,0.725,0.56125,0.92375,0.83,0.85125,0.8025,0.80125,0.7875,0.4553863525390625,0.4986663818359375,0.5002166748046875,0.5563173633296022,0.4113994319777412,0.09073275801803989,0.11512046292939943,0.0026719739110529707
0.635,0.63375,0.69,0.62375,0.725,0.56125,0.92375,0.83,0.85125,0.8025,0.80125,0.7875,0.4526702880859375,0.489190673828125,0.49683837890625,0.5551152412459777,0.43399933399622515,0.09073275801803989,0.11512046292939943,0.0026719739110529707
0.635,0.63325,0.69025,0.62275,0.72425,0.55975,0.924,0.8290000000000001,0.851,0.8027500000000001,0.8015000000000001,0.78825,0.4511566162109375,0.48111572265625,0.4931060791015625,0.5400016608601395,0.44151881681614097,0.08779092081351716,0.11527324871060561,0.0022270081284425595
0.635,0.63275,0.6905,0.62175,0.7234999999999999,0.55825,0.92425,0.828,0.85075,0.8029999999999999,0.80175,0.789,0.4488739013671875,0.47733154296875,0.489794921875,0.5192754120833524,0.449983417072385,0.09072741491210343,0.11389784841830075,0.002001549406021096
0.635,0.63225,0.69075,0.62075,0.72275,0.55675,0.9245,0.8270000000000001,0.8504999999999999,0.80325,0.802,0.78975,0.4457427978515625,0.475921630859375,0.487188720703125,0.498681811167619,0.4577847769860365,0.09030867757098951,0.11496735457913916,0.0025566535335376107
0.635,0.6317499999999999,0.691,0.61975,0.722,0.55525,0.92475,0.826,0.8502500000000001,0.8035,0.8022499999999999,0.7905,0.4441650390625,0.4800994873046875,0.484881591796875,0.4800779302423389,0.4733045915111842,0.09030867757098951,0.11496735457913916,0.0025566535335376107
0.635,0.63125,0.69125,0.61875,0.72125,0.55375,0.925,0.825,0.85,0.80375,0.8025,0.79125,0.44539794921875,0.487982177734375,0.4845794677734375,0.4686784935966378,0.49277068457063733,0.08611330509366709,0.11481472818499498,0.003003328202324316
0.635,0.63125,0.69125,0.61875,0.72125,0.55375,0.925,0.825,0.85,0.80375,0.8025,0.79125,0.449859619140625,0.4956298828125,0.4863189697265625,0.4718454643912665,0.5078593935473608,0.08611330509366709,0.11481472818499498,0.003003328202324316
0.635,0.63125,0.69125,0.61875,0.72125,0.55375,0.925,0.825,0.85,0.80375,0.8025,0.79125,0.4572906494140625,0.500103759765625,0.4882049560546875,0.4842065988075997,0.5169126188815286,0.09240503063195354,0.11557898345501007,0.0025554864722236105
0.635,0.63125,0.69125,0.61875,0.72125,0.55375,0.925,0.825,0.85,0.80375,0.8025,0.79125,0.3691986083984375,0.51353759765625,0.5337249755859375,0.45119383139781044,0.5259658442156965,0.09072741491210343,0.11542619767380388,0.0036688160029510917
0.635,0.63125,0.69125,0.61875,0.72125,0.55375,0.925,0.825,0.85,0.80375,0.8025,0.79125,0.360498046875,0.508428955078125,0.44222412109375,0.4631901841962462,0.47961366376597564,0.09072741491210343,0.11542619767380388,0.0036688160029510917
0.6335000000000001,0.63025,0.69,0.61975,0.72075,0.5515,0.922,0.8225,0.8482500000000001,0.802,0.79975,0.79125,0.3660186767578125,0.5284820556640625,0.4698760986328125,0.4553805337264461,0.4017161344901907,0.08819897714033206,0.11450915662258261,0.002780048695293367
0.632,0.62925,0.68875,0.62075,0.7202500000000001,0.54925,0.919,0.82,0.8465,0.80025,0.797,0.79125,0.3830169677734375,0.5079803466796875,0.482012939453125,0.45042281525160677,0.37924059055460513,0.08819897714033206,0.11450915662258261,0.002780048695293367
0.6305,0.62825,0.6875,0.62175,0.7197499999999999,0.547,0.9159999999999999,0.8175,0.8447499999999999,0.7985,0.79425,0.79125,0.396600341796875,0.498779296875,0.49176025390625,0.43125518065751767,0.3516249375945625,0.08947387444172987,0.11573241627178947,0.0023342943577410675
0.629,0.62725,0.68625,0.62275,0.71925,0.5447500000000001,0.9129999999999999,0.815,0.843,0.79675,0.7915000000000001,0.79125,0.505706787109375,0.4806182861328125,0.45787353515625,0.457461447889551,0.3240092846345199,0.08947387444172987,0.11573241627178947,0.0023342943577410675
0.6275,0.62625,0.685,0.62375,0.71875,0.5425,0.91,0.8125,0.84125,0.795,0.78875,0.79125,0.5310455322265625,0.4859710693359375,0.5646026611328125,0.4496766688288657,0.36794063918878284,0.0903033396626269,0.11527292614155152,0.001449098327797964
0.6275,0.62625,0.685,0.62375,0.71875,0.5425,0.91,0.8125,0.84125,0.795,0.78875,0.79125,0.534307861328125,0.46375732421875,0.5454071044921875,0.4620709652104623,0.4488642004529975,0.0903033396626269,0.11527292614155152,0.001449098327797964
0.6275,0.62625,0.685,0.62375,0.71875,0.5425,0.91,0.8125,0.84125,0.795,0.78875,0.79125,0.5234405517578125,0.482708740234375,0.5404205322265625,0.46770021413021345,0.47259990062457924,0.09030867757098951,0.1157319305207433,0.0024457070074332763
0.6275,0.62625,0.685,0.62375,0.71875,0.5425,0.91,0.8125,0.84125,0.795,0.78875,0.79125,0.512225341796875,0.4903045654296875,0.5362518310546875,0.48238268867587986,0.4972558452673878,0.0890417897309225,0.11481505075404909,0.0017815096331603017
0.622,0.62025,0.68025,0.6195,0.71375,0.54025,0.9035,0.80825,0.83625,0.7815000000000001,0.78375,0.77725,0.5021087646484375,0.4975311279296875,0.53267822265625,0.49684131972910356,0.5183385847169271,0.0873241267044183,0.11543071743549131,0.002002809692052669
0.6164999999999999,0.61425,0.6755,0.61525,0.70875,0.5379999999999999,0.897,0.804,0.83125,0.768,0.77875,0.76325,0.495001220703125,0.4988861083984375,0.527215576171875,0.5011772509014245,0.5176670543044316,0.0873241267044183,0.11543071743549131,0.002002809692052669
0.611,0.6082500000000001,0.6707500000000001,0.611,0.70375,0.5357500000000001,0.8905,0.79975,0.82625,0.7545000000000001,0.77375,0.74925,0.494415283203125,0.4999298095703125,0.5279083251953125,0.501152379427477,0.5098242420638665,0.09070071497514275,0.11420681264817623,0.001556151845771393
0.6054999999999999,0.6022500000000001,0.6659999999999999,0.60675,0.69875,0.5335,0.884,0.7955,0.82125,0.741,0.76875,0.7352500000000001,0.4950958251953125,0.49927978515625,0.52919921875,0.49945282702207516,0.5035068812627425,0.09111945231625666,0.11665220105743562,0.0023374997459626387
0.6,0.59625,0.66125,0.6025,0.69375,0.53125,0.8775,0.79125,0.81625,0.7275,0.76375,0.72125,0.496038818359375,0.49932861328125,0.530438232421875,0.4991958215319527,0.5000663240601924,0.09111945231625666,0.11665220105743562,0.0023374997459626387
0.6,0.59625,0.66125,0.6025,0.69375,0.53125,0.8775,0.79125,0.81625,0.7275,0.76375,0.72125,0.4958831787109375,0.4997467041015625,0.5310821533203125,0.49916265953427286,0.5001989720509116,0.0902899922929335,0.11665203977290857,0.0022248366233670225
0.6,0.59625,0.66125,0.6025,0.69375,0.53125,0.8775,0.79125,0.81625,0.7275,0.76375,0.72125,0.4956085205078125,0.4991302490234375,0.5305511474609375,0.4990797545481775,0.5000580335040438,0.08818562977063861,0.11558140462038084,0.0020021143618283535
0.6,0.59625,0.66125,0.6025,0.69375,0.53125,0.8775,0.79125,0.81625,0.7275,0.76375,0.72125,0.4951080322265625,0.4987152099609375,0.530078125,0.49991709498148823,0.49837506208127363,0.0907167338978044,0.11496977574450991,0.002997337988516845
0.6,0.596,0.6609999999999999,0.6015,0.693,0.53025,0.87625,0.79025,0.8140000000000001,0.726,0.76325,0.71875,0.4952392578125,0.498834228515625,0.529901123046875,0.5009285359269302,0.49630243724249457,0.08734548353544255,0.11573419040158703,0.0021128541113034755
0.6,0.59575,0.6607500000000001,0.6004999999999999,0.6922499999999999,0.52925,0.875,0.78925,0.81175,0.7245,0.76275,0.71625,0.496051025390625,0.4989837646484375,0.53096923828125,0.5010777649326975,0.4958381692587692,0.08734548353544255,0.11573419040158703,0.0021128541113034755
0.6,0.5954999999999999,0.6605,0.5995,0.6915,0.52825,0.87375,0.78825,0.8095,0.723,0.76225,0.71375,0.4964874267578125,0.4990753173828125,0.5316619873046875,0.5013016084251402,0.4961532081881027,0.08902043289989825,0.11466436356915954,0.0029983746754137872
0.6,0.59525,0.66025,0.5985,0.69075,0.52725,0.8725,0.7872499999999999,0.8072499999999999,0.7215,0.7617499999999999,0.71125,0.496905517578125,0.4991485595703125,0.531976318359375,0.5016000664123624,0.49819267106161835,0.08902577080826087,0.11481747381688485,0.002559288358450121
0.6,0.595,0.66,0.5975,0.69,0.52625,0.87125,0.78625,0.805,0.72,0.76125,0.70875,0.49703369140625,0.4991241455078125,0.53187255859375,0.5018985243914806,0.5014839993556504,0.09112479022461928,0.11619287410918974,0.0020035043213392605
0.6,0.595,0.66,0.5975,0.69,0.52625,0.87125,0.78625,0.805,0.72,0.76125,0.70875,0.49649658203125,0.4990234375,0.5314727783203125,0.5022052728619146,0.5037804677192885,0.09070338652811098,0.1148173106348928,0.0016709927818820865
0.6,0.595,0.66,0.5975,0.69,0.52625,0.87125,0.78625,0.805,0.72,0.76125,0.70875,0.4961151123046875,0.499005126953125,0.5310577392578125,0.5025451833300284,0.5045846461711276,0.09113280488352397,0.11390010829914446,0.002225517233899092
0.60125,0.5965,0.662,0.59875,0.6915,0.527,0.8732500000000001,0.78525,0.80625,0.72125,0.7617499999999999,0.7115,0.49605712890625,0.4990997314453125,0.5310272216796875,0.5025617643126601,0.5049162662127584,0.09113280488352397,0.11390010829914446,0.002225517233899092
0.6025,0.598,0.664,0.6,0.693,0.5277499999999999,0.8752500000000001,0.78425,0.8075,0.7225,0.76225,0.7142499999999999,0.496063232421875,0.4991546630859375,0.531048583984375,0.5026446692906514,0.5052478861895564,0.08944450814937482,0.11496993702903695,0.003001024920956267
0.60375,0.5995,0.6659999999999999,0.60125,0.6945,0.5285,0.87725,0.78325,0.80875,0.72375,0.76275,0.7170000000000001,0.4959808349609375,0.4991851806640625,0.5309326171875,0.5027027027946952,0.5054136962103717,0.08944450814937482,0.11496993702903695,0.003001024920956267
0.605,0.601,0.6679999999999999,0.6025,0.696,0.52925,0.87925,0.7822499999999999,0.81,0.725,0.76325,0.7197499999999999,0.4959014892578125,0.4992340087890625,0.5307861328125,0.5027856077726864,0.505314210184916,0.09111945231625666,0.11481698806583869,0.003004603208048136
0.60625,0.6025,0.67,0.60375,0.6975,0.53,0.88125,0.78125,0.81125,0.72625,0.76375,0.7225,0.4957611083984375,0.499322509765625,0.5307220458984375,0.5027773172813707,0.5050157521733813,0.09111945231625666,0.11481698806583869,0.003004603208048136
0.60625,0.6025,0.67,0.60375,0.6975,0.53,0.88125,0.78125,0.81125,0.72625,0.76375,0.7225,0.4957489013671875,0.4993927001953125,0.530670166015625,0.5029265462547214,0.5044851602105047,0.08903110871662347,0.11573419040158703,0.0017811626689858706
0.608,0.604,0.67175,0.60475,0.6992499999999999,0.531,0.88425,0.78325,0.815,0.73075,0.7659999999999999,0.72725,0.495806884765625,0.49951171875,0.5306549072265625,0.5028685127830941,0.5040208922429875,0.08777490189085554,0.11527470216881408,0.0018901416628929722
0.60975,0.6054999999999999,0.6735,0.60575,0.701,0.532,0.88725,0.78525,0.81875,0.7352500000000001,0.76825,0.732,0.4959228515625,0.499676513671875,0.5308624267578125,0.5026529597819672,0.5038965347435842,0.0902899922929335,0.11573354526347883,0.00211376533034744
0.6114999999999999,0.607,0.67525,0.60675,0.7027500000000001,0.5329999999999999,0.8902500000000001,0.7872499999999999,0.8225,0.7397499999999999,0.7705,0.73675,0.4960662841796875,0.4996551513671875,0.5313507080078125,0.5020726248549873,0.5045514841410315,0.08819630558736383,0.11619174322003537,0.002556422224087992
0.6132500000000001,0.6085,0.677,0.60775,0.7045,0.534,0.89325,0.78925,0.82625,0.74425,0.77275,0.7415,0.49620361328125,0.4997406005859375,0.5318145751953125,0.5014674183811227,0.5061598409474606,0.08819630558736383,0.11619174322003537,0.002556422224087992
0.615,0.61,0.67875,0.60875,0.70625,0.535,0.89625,0.79125,0.83,0.74875,0.775,0.74625,0.4961273193359375,0.4998931884765625,0.532177734375,0.5004559774680972,0.5088542532832563,0.09113280488352397,0.11481634292773049,0.0023361245061439832
0.615,0.61,0.67875,0.60875,0.70625,0.535,0.89625,0.79125,0.83,0.74875,0.775,0.74625,0.4960540771484375,0.5000885009765625,0.5326171875,0.4995523130070105,0.5115072131624727,0.09071139598944178,0.11527437959975999,0.0017797628963467976
0.615,0.61,0.67875,0.60875,0.70625,0.535,0.89625,0.79125,0.83,0.74875,0.775,0.74625,0.4960357666015625,0.4999847412109375,0.5328643798828125,0.49871497257369973,0.5144752119710226,0.08945518916367386,0.1146635571465243,0.00177827200180333
0.615,0.61,0.67875,0.60875,0.70625,0.535,0.89625,0.79125,0.83,0.74875,0.775,0.74625,0.495758056640625,0.5000640869140625,0.5322662353515625,0.49788592261549663,0.517136462341555,0.08945518916367386,0.1146635571465243,0.00177827200180333
0.61475,0.61,0.679,0.609,0.7065,0.5347500000000001,0.8965000000000001,0.79175,0.831,0.7525,0.77625,0.74925,0.4954833984375,0.4998016357421875,0.531719970703125,0.4973304591381519,0.5186287523343949,0.08903645182255993,0.11542764923454732,0.0025591979374834503
0.6145,0.61,0.67925,0.60925,0.70675,0.5345,0.8967499999999999,0.7922499999999999,0.8320000000000001,0.75625,0.7775,0.75225,0.495294189453125,0.4992340087890625,0.5315185546875,0.4973387496294677,0.5188525957944212,0.08903645182255993,0.11542764923454732,0.0025591979374834503
0.61425,0.61,0.6795,0.6095,0.7070000000000001,0.53425,0.897,0.7927500000000001,0.833,0.76,0.77875,0.7552500000000001,0.495086669921875,0.49881591796875,0.5310089111328125,0.4975543026305946,0.5189852436554748,0.08861771448144597,0.11496864485535555,0.0021152737483340614
0.614,0.61,0.67975,0.60975,0.7072499999999999,0.534,0.89725,0.79325,0.8340000000000001,0.76375,0.78,0.75825,0.49481201171875,0.4987060546875,0.530438232421875,0.4979522466027521,0.5183551655374767,0.08861771448144597,0.11496864485535555,0.0021152737483340614
0.61375,0.61,0.68,0.61,0.7075,0.53375,0.8975,0.79375,0.835,0.7675,0.78125,0.76125,0.494696044921875,0.49864501953125,0.530426025390625,0.4986320675713961,0.517302272167872,0.08860703346714693,0.1145101243297449,0.0021128541113034755
0.61375,0.61,0.68,0.61,0.7075,0.53375,0.8975,0.79375,0.835,0.7675,0.78125,0.76125,0.4946197509765625,0.4987030029296875,0.5303192138671875,0.4988807825702028,0.5161001498249163,0.08860703346714693,0.1145101243297449,0.0021128541113034755
0.61375,0.61,0.68,0.61,0.7075,0.53375,0.8975,0.79375,0.835,0.7675,0.78125,0.76125,0.4945220947265625,0.4990081787109375,0.5299346923828125,0.49901343056092196,0.5147570888054271,0.08987659286018214,0.11512175510308086,0.002116889409792783
0.61375,0.61,0.68,0.61,0.7075,0.53375,0.8975,0.79375,0.835,0.7675,0.78125,0.76125,0.4944244384765625,0.4991455078125,0.5298126220703125,0.498847620572523,0.5132233465505063,0.09198362693544525,0.11405176508866131,0.0022239183949458
0.61375,0.61,0.68,0.61,0.7075,0.53375,0.8975,0.79375,0.835,0.7675,0.78125,0.76125,0.4943084716796875,0.49913330078125,0.52962646484375,0.4985906150824005,0.5116978947220684,0.08861504292847774,0.11496928999346373,0.003112319813110486
0.614,0.60975,0.67975,0.6095,0.70825,0.53425,0.8985,0.79325,0.835,0.76875,0.7822499999999999,0.763,0.4941192626953125,0.4990875244140625,0.529412841796875,0.4982755761206506,0.5101392807987016,0.08736684556404065,0.11527437959975999,0.002553192303046003
0.61425,0.6095,0.6795,0.609,0.7090000000000001,0.5347500000000001,0.8995000000000001,0.7927500000000001,0.835,0.77,0.78325,0.7647499999999999,0.4938934326171875,0.4990386962890625,0.529119873046875,0.49816779963629537,0.5083568233504757,0.08736684556404065,0.11527437959975999,0.002553192303046003
0.6145,0.60925,0.67925,0.6085,0.70975,0.53525,0.9005,0.7922499999999999,0.835,0.77125,0.78425,0.7665000000000001,0.4937835693359375,0.49898681640625,0.5285430908203125,0.49814292816234784,0.5061432600863903,0.09155688013300049,0.11435717726401166,0.002553771978545512
0.61475,0.609,0.679,0.608,0.7105,0.5357500000000001,0.9015000000000001,0.79175,0.835,0.7725,0.78525,0.76825,0.4937713623046875,0.4990020751953125,0.528704833984375,0.4983004476432228,0.5029099652315693,0.09155688013300049,0.11435717726401166,0.002553771978545512
0.615,0.60875,0.67875,0.6075,0.71125,0.53625,0.9025,0.79125,0.835,0.77375,0.78625,0.77,0.49385986328125,0.49903564453125,0.5293487548828125,0.4984248051426261,0.5001492289652468,0.09029265864832788,0.11527486345334112,0.002780048695293367
0.615,0.60875,0.67875,0.6075,0.71125,0.53625,0.9025,0.79125,0.835,0.77375,0.78625,0.77,0.4941009521484375,0.49901123046875,0.5303009033203125,0.49848283861425347,0.4982507045737662,0.08819897714033206,0.11619190450456242,0.0018926811602747262
0.615,0.6072500000000001,0.6785,0.60675,0.71125,0.5365,0.90275,0.79125,0.8345,0.774,0.7865000000000001,0.77075,0.4943878173828125,0.4989959716796875,0.5313262939453125,0.49856574359224476,0.496990548661934,0.08819897714033206,0.11619190450456242,0.0018926811602747262
0.615,0.60575,0.67825,0.606,0.71125,0.53675,0.903,0.79125,0.8340000000000001,0.77425,0.78675,0.7715000000000001,0.4945953369140625,0.4990631103515625,0.53271484375,0.49862377709628847,0.4974962691589672,0.08987125495181957,0.11527454088428704,0.0017832234259006815
0.615,0.60425,0.6779999999999999,0.60525,0.71125,0.537,0.90325,0.79125,0.8334999999999999,0.7745000000000001,0.787,0.77225,0.4947021484375,0.4990936279296875,0.533477783203125,0.49858232459108465,0.5001409385468678,0.08945785551906822,0.11481634292773049,0.0020009795436497584
0.615,0.60275,0.6777500000000001,0.6045,0.71125,0.53725,0.9035,0.79125,0.833,0.7747499999999999,0.7872499999999999,0.773,0.494732666015625,0.4992584228515625,0.53399658203125,0.4984662575829972,0.5035234622453741,0.0902953302012961,0.11512175510308086,0.0028907737250762483
0.615,0.60125,0.6775,0.60375,0.71125,0.5375,0.90375,0.79125,0.8325,0.775,0.7875,0.77375,0.4947021484375,0.499444580078125,0.5342071533203125,0.49837506208127363,0.5063173604769601,0.0902953302012961,0.11512175510308086,0.0028907737250762483
0.615,0.60125,0.6775,0.60375,0.71125,0.5375,0.90375,0.79125,0.8325,0.775,0.7875,0.77375,0.494659423828125,0.4994873046875,0.5346527099609375,0.4982424140905544,0.5105786772922712,0.08946052707203646,0.11558075948227263,0.0028885776871802934
0.615,0.60125,0.6775,0.60375,0.71125,0.5375,0.90375,0.79125,0.8325,0.775,0.7875,0.77375,0.4947021484375,0.4992950439453125,0.5349273681640625,0.49812634708246695,0.5148814462399977,0.08861504292847774,0.11558075948227263,0.0017822974871644713
0.615,0.60125,0.6775,0.60375,0.71125,0.5375,0.90375,0.79125,0.8325,0.775,0.7875,0.77375,0.494671630859375,0.4991546630859375,0.535150146484375,0.49794395611143627,0.5193251541235887,0.08946052707203646,0.11435749983306577,0.001997185367738241
0.615,0.60125,0.6775,0.60375,0.71125,0.5375,0.90375,0.79125,0.8325,0.775,0.7875,0.77375,0.494512939453125,0.4990447998046875,0.53494873046875,0.4977118221600941,0.5236776662785414,0.08946052707203646,0.11435749983306577,0.001997185367738241
0.61525,0.6,0.6775,0.604,0.711,0.5375,0.9047499999999999,0.792,0.833,0.7755,0.7872499999999999,0.77375,0.4942474365234375,0.499114990234375,0.534234619140625,0.497388492674612,0.5285027372813237,0.08903645182255993,0.11527486345334112,0.001001266410825429
0.6154999999999999,0.59875,0.6775,0.60425,0.71075,0.5375,0.90575,0.7927500000000001,0.8334999999999999,0.7759999999999999,0.787,0.77375,0.493902587890625,0.4990264892578125,0.5328399658203125,0.4969905487348708,0.532001327858252,0.09113280488352397,0.1148160203586764,0.0028935396253435405
0.61575,0.5975,0.6775,0.6045,0.7105,0.5375,0.90675,0.7935,0.8340000000000001,0.7765000000000001,0.78675,0.77375,0.493414306640625,0.4990020751953125,0.531414794921875,0.4965179902760378,0.5340407911855971,0.09113280488352397,0.1148160203586764,0.0028935396253435405
0.616,0.59625,0.6775,0.60475,0.71025,0.5375,0.9077500000000001,0.79425,0.8345,0.777,0.7865000000000001,0.77375,0.4929229736328125,0.498931884765625,0.5300384521484375,0.49604543181720484,0.5346377070790006,0.09029265864832788,0.11466339586199727,0.0034461007507896753
0.61625,0.595,0.6775,0.605,0.71,0.5375,0.90875,0.795,0.835,0.7775,0.78625,0.77375,0.492523193359375,0.4989013671875,0.529107666015625,0.4954153538937051,0.5340325008887796,0.09029265864832788,0.11466339586199727,0.0034461007507896753
0.61625,0.595,0.6775,0.605,0.71,0.5375,0.90875,0.795,0.835,0.7775,0.78625,0.77375,0.4922149658203125,0.49869384765625,0.52857666015625,0.49482672842678466,0.5325899539735003,0.08860970502011518,0.11496896742440964,0.0025565378788127984
0.6154999999999999,0.59375,0.6775,0.60525,0.70975,0.53725,0.9085,0.795,0.83475,0.77775,0.7865000000000001,0.774,0.491937255859375,0.4987457275390625,0.528485107421875,0.49428784597259207,0.5305339100525202,0.09071406754241002,0.115122238956662,0.0021159613682433893
0.61475,0.5925,0.6775,0.6054999999999999,0.7095,0.537,0.90825,0.795,0.8345,0.778,0.78675,0.77425,0.4917877197265625,0.4987884521484375,0.5282012939453125,0.49345879606301357,0.5283037652304121,0.09113280488352397,0.11466307329294316,0.0022214987579152147
0.614,0.59125,0.6775,0.60575,0.7092499999999999,0.53675,0.9079999999999999,0.795,0.8342499999999999,0.77825,0.787,0.7745000000000001,0.4916351318359375,0.4988189697265625,0.5275482177734375,0.49246393606778693,0.5257171293465553,0.09113280488352397,0.11466307329294316,0.0022214987579152147
0.6132500000000001,0.59,0.6775,0.606,0.7090000000000001,0.5365,0.9077500000000001,0.795,0.8340000000000001,0.7785,0.7872499999999999,0.7747499999999999,0.4912994384765625,0.498773193359375,0.5265289306640625,0.4915188191501209,0.5223263149622348,0.09113280488352397,0.11466307329294316,0.0022214987579152147
0.6125,0.58875,0.6775,0.60625,0.70875,0.53625,0.9075,0.795,0.83375,0.77875,0.7875,0.775,0.4909149169921875,0.4985687255859375,0.52532958984375,0.49054883082334017,0.5178162830184514,0.09239168326226015,0.11588665551120414,0.0024480011766108843
0.6125,0.58875,0.6775,0.60625,0.70875,0.53625,0.9075,0.795,0.83375,0.77875,0.7875,0.775,0.4905731201171875,0.4983306884765625,0.5235626220703125,0.4897778142881398,0.5119383190350609,0.09239168326226015,0.11588665551120414,0.0024480011766108843
0.6125,0.58875,0.6775,0.60625,0.70875,0.53625,0.9075,0.795,0.83375,0.77875,0.7875,0.775,0.490264892578125,0.4981597900390625,0.5226318359375,0.4900265292869465,0.5047090038650294,0.09197294592114619,0.11435766111759281,0.002667602162455123
0.6125,0.58875,0.6775,0.60625,0.70875,0.53625,0.9075,0.795,0.83375,0.77875,0.7875,0.775,0.4901519775390625,0.497760009765625,0.5224609375,0.49073122176195444,0.4970320012562829,0.08945518916367386,0.11542764923454732,0.002557805174221635
0.6125,0.58875,0.6775,0.60625,0.70875,0.53625,0.9075,0.795,0.83375,0.77875,0.7875,0.775,0.4903564453125,0.4974151611328125,0.5228668212890625,0.4920991541257255,0.48960371377600864,0.09029265864832788,0.11451028561427196,0.002446154205702544
0.61175,0.5875,0.6775,0.606,0.70875,0.53625,0.9075,0.7959999999999999,0.833,0.779,0.7872499999999999,0.775,0.4906494140625,0.497149658203125,0.524053955078125,0.49379041591014594,0.4833941294916563,0.09071406754241002,0.11481618164320345,0.0015602852755423585
0.611,0.58625,0.6775,0.60575,0.70875,0.53625,0.9075,0.797,0.8322499999999999,0.77925,0.787,0.775,0.4910308837890625,0.4970794677734375,0.5259307861328125,0.4956474878450473,0.4786768353298094,0.09071406754241002,0.11481618164320345,0.0015602852755423585
0.61025,0.585,0.6775,0.6054999999999999,0.70875,0.53625,0.9075,0.7979999999999999,0.8315,0.7795000000000001,0.78675,0.775,0.4914520263671875,0.496905517578125,0.527178955078125,0.4973553306769322,0.47589122765437214,0.08945785551906822,0.11496977574450991,0.0031134714537945107
0.6095,0.58375,0.6775,0.60525,0.70875,0.53625,0.9075,0.799,0.83075,0.7797499999999999,0.7865000000000001,0.775,0.491778564453125,0.4969757080078125,0.5279693603515625,0.49926214555972864,0.4736776644632236,0.08987392130721392,0.1148166654967846,0.0024515626411973288
0.60875,0.5825,0.6775,0.605,0.70875,0.53625,0.9075,0.8,0.83,0.78,0.78625,0.775,0.49197998046875,0.4969482421875,0.5284515380859375,0.5007544354229031,0.4724423801550045,0.08987392130721392,0.1148166654967846,0.0024515626411973288
0.60875,0.5825,0.6775,0.605,0.70875,0.53625,0.9075,0.8,0.83,0.78,0.78625,0.775,0.492333984375,0.49703369140625,0.5277923583984375,0.5017492953857133,0.47039462704950413,0.0923970211706227,0.11481698806583869,0.0017794243434250791
0.60875,0.5825,0.6775,0.605,0.70875,0.53625,0.9075,0.8,0.83,0.78,0.78625,0.775,0.49246826171875,0.4970916748046875,0.52618408203125,0.5026695408294317,0.46665561190025223,0.09196760801278361,0.11542878012370171,0.0036676566519520787
0.60875,0.5825,0.6775,0.605,0.70875,0.53625,0.9075,0.8,0.83,0.78,0.78625,0.775,0.49249267578125,0.497186279296875,0.525128173828125,0.503506881230326,0.4602221838965424,0.09196760801278361,0.11542878012370171,0.0036676566519520787
0.6075,0.58175,0.67675,0.6015,0.70825,0.5355,0.90575,0.7977500000000001,0.83,0.7785,0.78525,0.7752500000000001,0.49248046875,0.497467041015625,0.5251007080078125,0.5043276406485887,0.45149228817752224,0.09028464918699702,0.11588730064931234,0.0034448411656958266
0.60625,0.581,0.6759999999999999,0.598,0.7077500000000001,0.5347500000000001,0.904,0.7955,0.83,0.777,0.78425,0.7755,0.492620849609375,0.4974517822265625,0.526654052734375,0.5066075279647624,0.44126181139085124,0.09028464918699702,0.11588730064931234,0.0034448411656958266
0.605,0.5802499999999999,0.67525,0.5945,0.7072499999999999,0.534,0.90225,0.79325,0.83,0.7755,0.78325,0.77575,0.49298095703125,0.4975982666015625,0.530963134765625,0.5104709007106668,0.4330127648164782,0.0898659118458831,0.11466371843105136,0.0020075375170153895
0.60375,0.5795,0.6745,0.591,0.70675,0.53325,0.9005,0.7909999999999999,0.83,0.774,0.7822499999999999,0.7759999999999999,0.4941680908203125,0.4983154296875,0.537115478515625,0.5133808659503402,0.431694575465435,0.0911221238692249,0.1157343535835791,0.0017827446854337384
0.6025,0.57875,0.67375,0.5875,0.70625,0.5325,0.89875,0.78875,0.83,0.7725,0.78125,0.77625,0.4953216552734375,0.499847412109375,0.542071533203125,0.5149643512828218,0.43984413666268,0.08734548353544255,0.11558237422500817,0.0026700210985479843
0.6025,0.57875,0.67375,0.5875,0.70625,0.5325,0.89875,0.78875,0.83,0.7725,0.78125,0.77625,0.4964019775390625,0.5008636474609375,0.545697021484375,0.513836843394125,0.45876305612829693,0.09196493645981538,0.1155815659049079,0.002333822626651388
0.6025,0.57875,0.67375,0.5875,0.70625,0.5325,0.89875,0.78875,0.83,0.7725,0.78125,0.77625,0.496942138671875,0.501470947265625,0.5478729248046875,0.5109849116260791,0.4837008789021655,0.09196493645981538,0.1155815659049079,0.002333822626651388
0.6025,0.57875,0.67375,0.5875,0.70625,0.5325,0.89875,0.78875,0.83,0.7725,0.78125,0.77625,0.4968841552734375,0.5015106201171875,0.5496551513671875,0.5082158848036079,0.512941470494095,0.08944450814937482,0.11497058216714515,0.0018924428414478437
0.6025,0.57875,0.67375,0.5875,0.70625,0.5325,0.89875,0.78875,0.83,0.7725,0.78125,0.77625,0.496148681640625,0.5008880615234375,0.55042724609375,0.5061764219949251,0.5372906676713776,0.08986324549048873,0.11558188847396197,0.0022235546082659393
0.60175,0.57825,0.6729999999999999,0.58625,0.70625,0.53125,0.8985,0.7907500000000001,0.8290000000000001,0.77,0.7805,0.775,0.495672607421875,0.5001861572265625,0.5553985595703125,0.5088376726247885,0.5646576052436169,0.08986324549048873,0.11558188847396197,0.0022235546082659393
0.601,0.57775,0.6722499999999999,0.585,0.70625,0.53,0.89825,0.7927500000000001,0.828,0.7675,0.7797499999999999,0.77375,0.49586181640625,0.4997100830078125,0.5613067626953125,0.5142182069023131,0.5883103993350501,0.08859635245284787,0.11466533317378687,0.0011142905163499983
0.60025,0.57725,0.6715000000000001,0.58375,0.70625,0.52875,0.898,0.79475,0.8270000000000001,0.765,0.779,0.7725,0.49615478515625,0.50118408203125,0.567822265625,0.5202454001508021,0.6176504755261143,0.08859635245284787,0.11466533317378687,0.0011142905163499983
0.5995,0.57675,0.6707500000000001,0.5825,0.70625,0.5275,0.89775,0.79675,0.826,0.7625,0.77825,0.77125,0.49744873046875,0.5019287109375,0.568719482421875,0.5224340919328359,0.6480848968302021,0.08942848922671313,0.11497122730525336,0.0027843153032322925
0.59875,0.57625,0.67,0.58125,0.70625,0.52625,0.8975,0.79875,0.825,0.76,0.7775,0.77,0.4967864990234375,0.5048858642578125,0.5729339599609375,0.5201873665819255,0.6813049284030382,0.08985523602915789,0.11558237422500817,0.0030024078710899106
0.59875,0.57625,0.67,0.58125,0.70625,0.52625,0.8975,0.79875,0.825,0.76,0.7775,0.77,0.4931976318359375,0.509869384765625,0.5731170654296875,0.5158016921375456,0.7027939047148636,0.0907060580810792,0.1146642022846325,0.0025568869458004128
0.59875,0.57625,0.67,0.58125,0.70625,0.52625,0.8975,0.79875,0.825,0.76,0.7775,0.77,0.4799407958984375,0.5223419189453125,0.56998291015625,0.5276405248878195,0.6999419741462238,0.0907060580810792,0.1146642022846325,0.0025568869458004128
0.59875,0.57625,0.67,0.58125,0.70625,0.52625,0.8975,0.79875,0.825,0.76,0.7775,0.77,0.4501495361328125,0.5308624267578125,0.55660400390625,0.5759326858810685,0.6694329375774674,0.09069804861974837,0.11604024771504556,0.0024460462612927196
0.60425,0.5865,0.6729999999999999,0.586,0.70825,0.53225,0.9017499999999999,0.80175,0.8292499999999999,0.7652500000000001,0.7805,0.7725,0.4195587158203125,0.5404815673828125,0.5471343994140625,0.6266456729318572,0.6326231219033791,0.09069804861974837,0.11604024771504556,0.0024460462612927196
0.60975,0.59675,0.6759999999999999,0.59075,0.71025,0.53825,0.9059999999999999,0.80475,0.8334999999999999,0.7705,0.7835,0.775,0.4083892822265625,0.52763671875,0.5205108642578125,0.6913778925973169,0.5477864399208248,0.08986324549048873,0.11542878012370171,0.0030016214189612003
0.61525,0.607,0.679,0.5954999999999999,0.7122499999999999,0.54425,0.91025,0.8077500000000001,0.8377500000000001,0.77575,0.7865000000000001,0.7775,0.392999267578125,0.505267333984375,0.4987945556640625,0.7516332403392731,0.4598905637252461,0.0902899922929335,0.11573354526347883,0.002226909997160907
0.62075,0.61725,0.682,0.60025,0.7142499999999999,0.55025,0.9145,0.8107500000000001,0.8420000000000001,0.7809999999999999,0.7895,0.78,0.379400634765625,0.4679595947265625,0.485528564453125,0.7765378998512228,0.4173685919491011,0.09113547123891831,0.11496928999346373,0.0024458128490299227
0.62625,0.6275,0.685,0.605,0.71625,0.55625,0.91875,0.81375,0.84625,0.78625,0.7925,0.7825,0.3958465576171875,0.4363311767578125,0.4753173828125,0.7151135876471092,0.4068147860659446,0.09113547123891831,0.11496928999346373,0.0024458128490299227
0.62625,0.6275,0.685,0.605,0.71625,0.55625,0.91875,0.81375,0.84625,0.78625,0.7925,0.7825,0.414556884765625,0.4116180419921875,0.4680633544921875,0.6379207460487067,0.3959791030890526,0.08735082664137901,0.11603879615430214,0.0015577576941019488
0.62625,0.6275,0.685,0.605,0.71625,0.55625,0.91875,0.81375,0.84625,0.78625,0.7925,0.7825,0.4160125732421875,0.4130401611328125,0.479364013671875,0.5295307582044894,0.4302022852132639,0.08903645182255993,0.11557978987764532,0.003113355799069699
0.62625,0.6275,0.685,0.605,0.71625,0.55625,0.91875,0.81375,0.84625,0.78625,0.7925,0.7825,0.4260406494140625,0.42852783203125,0.488739013671875,0.4152628088405269,0.47250041375629737,0.08945785551906822,0.11481537522056821,0.002561938603992601
0.6265,0.62875,0.6855,0.60675,0.7175,0.5585,0.9205,0.81575,0.8465,0.78825,0.7935,0.78475,0.443389892578125,0.4515472412109375,0.4923492431640625,0.3197148061132765,0.4897031997366316,0.08904713283685896,0.11619109808192717,0.002115025616379013
0.6267499999999999,0.63,0.6859999999999999,0.6085,0.71875,0.5607500000000001,0.9222499999999999,0.8177500000000001,0.84675,0.79025,0.7945,0.787,0.4503814697265625,0.4756317138671875,0.50260009765625,0.27762394118221123,0.4989471065655624,0.08904713283685896,0.11619109808192717,0.002115025616379013
0.627,0.63125,0.6865000000000001,0.61025,0.72,0.563,0.924,0.81975,0.847,0.7922499999999999,0.7955,0.78925,0.459124755859375,0.4936279296875,0.50943603515625,0.282241748540609,0.5163405745917381,0.08945785551906822,0.11542700409643913,0.0016715801676965775
0.62725,0.6325,0.687,0.612,0.72125,0.56525,0.9257500000000001,0.82175,0.84725,0.79425,0.7965000000000001,0.7915000000000001,0.4706939697265625,0.5035125732421875,0.5124755859375,0.3164483472185432,0.5374564763955374,0.08945785551906822,0.11542700409643913,0.0016715801676965775
0.6275,0.63375,0.6875,0.61375,0.7225,0.5675,0.9275,0.82375,0.8475,0.79625,0.7975,0.79375,0.4825469970703125,0.5059814453125,0.5131500244140625,0.35972475260227355,0.557527775677628,0.08861504292847774,0.11527437959975999,0.0026718512469509005
0.6275,0.63375,0.6875,0.61375,0.7225,0.5675,0.9275,0.82375,0.8475,0.79625,0.7975,0.79375,0.49735107421875,0.5087249755859375,0.5139373779296875,0.4022218503759928,0.5788675214925323,0.08736951711700888,0.11512143063656173,0.0026671304313654436
0.62775,0.63425,0.6877500000000001,0.6145,0.7234999999999999,0.56875,0.9279999999999999,0.8245,0.8465,0.79675,0.7975,0.79375,0.5108642578125,0.5078216552734375,0.514385986328125,0.4400348173794496,0.5929779515863263,0.08903645182255993,0.11466242625736994,0.001556814932860309
0.628,0.63475,0.688,0.61525,0.7245,0.57,0.9285,0.82525,0.8454999999999999,0.7972499999999999,0.7975,0.79375,0.521856689453125,0.50684814453125,0.5150482177734375,0.4469076414877323,0.5962858598904983,0.08903645182255993,0.11466242625736994,0.001556814932860309
0.62825,0.63525,0.68825,0.616,0.7254999999999999,0.57125,0.929,0.826,0.8445,0.7977500000000001,0.7975,0.79375,0.530267333984375,0.5083587646484375,0.5149505615234375,0.4464019209339704,0.5916265989733641,0.08862305238980858,0.1143573385485387,0.0029981412631509847
0.6285000000000001,0.63575,0.6884999999999999,0.61675,0.7265,0.5725,0.9295,0.82675,0.8434999999999999,0.79825,0.7975,0.79375,0.5367462158203125,0.5100372314453125,0.51483154296875,0.4454982557597231,0.5848615507983581,0.08861771448144597,0.11558027562869148,0.0024466182264772404
0.62875,0.63625,0.68875,0.6175,0.7275,0.57375,0.93,0.8275,0.8425,0.79875,0.7975,0.79375,0.540057373046875,0.5115325927734375,0.5132049560546875,0.4483750592934642,0.5679738030666132,0.0886123765730834,0.11542700409643913,0.002111687750927205
0.62875,0.63625,0.68875,0.6175,0.7275,0.57375,0.93,0.8275,0.8425,0.79875,0.7975,0.79375,0.540771484375,0.5123870849609375,0.51094970703125,0.4560106093807986,0.5505886255965861,0.08987926441315038,0.11573290012537064,0.001890362458276701
0.62875,0.63625,0.68875,0.6175,0.7275,0.57375,0.93,0.8275,0.8425,0.79875,0.7975,0.79375,0.539990234375,0.5124847412109375,0.5089385986328125,0.46364615946813303,0.5361382858126715,0.08987926441315038,0.11573290012537064,0.001890362458276701
0.6295000000000001,0.636,0.6884999999999999,0.6182500000000001,0.7275,0.57375,0.9295,0.8272499999999999,0.8425,0.79925,0.7975,0.7935,0.5366424560546875,0.5118438720703125,0.505419921875,0.4736693735180783,0.5288094850061807,0.0928264395260357,0.11527437959975999,0.0017809075276535643
0.63025,0.63575,0.68825,0.619,0.7275,0.57375,0.929,0.8270000000000001,0.8425,0.79975,0.7975,0.79325,0.5308380126953125,0.5111358642578125,0.501422119140625,0.4863206758436269,0.526396950542114,0.08988460232151298,0.11542700409643913,0.0023388749857813002
0.631,0.6355,0.688,0.61975,0.7275,0.57375,0.9285,0.82675,0.8425,0.80025,0.7975,0.7929999999999999,0.523858642578125,0.510235595703125,0.4986419677734375,0.4974631070640383,0.5390897053890746,0.09072474855670909,0.11450980176069081,0.0023331448198702204
0.6317499999999999,0.63525,0.6877500000000001,0.6204999999999999,0.7275,0.57375,0.9279999999999999,0.8265,0.8425,0.8007500000000001,0.7975,0.7927500000000001,0.5161773681640625,0.5097503662109375,0.497760009765625,0.5047007130495496,0.5587879316867095,0.08861771448144597,0.11481569778962229,0.002895378885936893
0.6325,0.635,0.6875,0.62125,0.7275,0.57375,0.9275,0.82625,0.8425,0.80125,0.7975,0.7925,0.5080352783203125,0.5094146728515625,0.4971588134765625,0.5108439731440441,0.5828303793238172,0.09071940545077262,0.11435717726401166,0.002446964489713947
0.6325,0.635,0.6875,0.62125,0.7275,0.57375,0.9275,0.82625,0.8425,0.80125,0.7975,0.7925,0.5120849609375,0.5023101806640625,0.4782501220703125,0.5183800372059226,0.5782374424020426,0.08820164869330029,0.1143573385485387,0.0024466259367922284
0.6325,0.635,0.6875,0.62125,0.7275,0.57375,0.9275,0.82625,0.8425,0.80125,0.7975,0.7925,0.4938812255859375,0.500738525390625,0.5007598876953125,0.5318023552886783,0.5316531256021668,0.08820164869330029,0.1143573385485387,0.0024466259367922284
0.6325,0.635,0.6875,0.62125,0.7275,0.57375,0.9275,0.82625,0.8425,0.80125,0.7975,0.7925,0.5015777587890625,0.4903350830078125,0.522711181640625,0.5404410556680569,0.4598573989721733,0.0890337802695917,0.11527470216881408,0.003333985761495892
0.6317499999999999,0.63425,0.68875,0.6214999999999999,0.7282500000000001,0.5710000000000001,0.9277500000000001,0.8292499999999999,0.8445,0.80325,0.7977500000000001,0.79375,0.5028656005859375,0.4892181396484375,0.5410858154296875,0.5502570072406074,0.3587962098597977,0.0890337802695917,0.11527470216881408,0.003333985761495892
0.631,0.6335000000000001,0.69,0.62175,0.7290000000000001,0.56825,0.9279999999999999,0.8322499999999999,0.8465,0.80525,0.7979999999999999,0.795,0.505230712890625,0.490484619140625,0.562542724609375,0.5643094039600234,0.2562758973878055,0.09156221804136307,0.11588568590657683,0.0021143450058469433
0.63025,0.63275,0.69125,0.622,0.7297499999999999,0.5655,0.92825,0.83525,0.8484999999999999,0.8072499999999999,0.79825,0.79625,0.4985382080078125,0.497845458984375,0.598583984375,0.5647819622891908,0.18689270878768144,0.09534419628350806,0.11603928000788329,0.002891119988312955
0.6295000000000001,0.632,0.6925,0.62225,0.7304999999999999,0.56275,0.9285,0.83825,0.8504999999999999,0.80925,0.7985,0.7975,0.516253662109375,0.4964813232421875,0.588525390625,0.5484496789667618,0.16212898639627848,0.09114615225321739,0.12016596473837904,0.009122667355824897
0.62875,0.63125,0.69375,0.6225,0.73125,0.56,0.92875,0.84125,0.8525,0.81125,0.79875,0.79875,0.5072296142578125,0.500445556640625,0.5818206787109375,0.5267368604915657,0.19878957724631358,0.11582490346624015,0.11940445510025381,0.0946382349016461
0.62875,0.63125,0.69375,0.6225,0.73125,0.56,0.92875,0.84125,0.8525,0.81125,0.79875,0.79875,0.5114532470703125,0.5006317138671875,0.5789031982421875,0.5095340739601528,0.2708257281892996,0.0914580898464885,0.13821025372376705,0.13529574289074858
0.619,0.621,0.6845,0.615,0.7204999999999999,0.5515,0.919,0.83175,0.8482500000000001,0.79475,0.7965000000000001,0.7922499999999999,0.5150604248046875,0.498284912109375,0.5726226806640625,0.4891891881728916,0.33997678115242924,0.14415479439442488,0.20289393320225227,0.25714414410457587
0.60925,0.61075,0.67525,0.6075,0.70975,0.5429999999999999,0.90925,0.8222499999999999,0.8440000000000001,0.77825,0.79425,0.7857500000000001,0.5115386962890625,0.495343017578125,0.5648712158203125,0.48454650862738574,0.42083402107942813,0.19989747473690633,0.2420403367782589,0.30157750268928424
0.5995,0.6004999999999999,0.6659999999999999,0.6,0.6990000000000001,0.5345,0.8995000000000001,0.8127500000000001,0.83975,0.7617499999999999,0.792,0.77925,0.508319091796875,0.495660400390625,0.5622802734375,0.48819432843699606,0.49414690833338315,0.3889505286499159,0.25949285196178823,0.40602037039144784
0.58975,0.5902499999999999,0.65675,0.5925,0.68825,0.526,0.8897499999999999,0.80325,0.8355,0.7452500000000001,0.78975,0.77275,0.5074432373046875,0.5024139404296875,0.5550140380859375,0.49202453944455177,0.5258414869107915,0.7401293160536455,0.5089463568934335,0.7227291033918205
0.58,0.58,0.6475,0.585,0.6775,0.5175,0.88,0.79375,0.83125,0.72875,0.7875,0.76625,0.5010986328125,0.5005523681640625,0.5470733642578125,0.4949676667791541,0.5531255212555244,0.7401293160536455,0.5089463568934335,0.7227291033918205
0.58,0.58,0.6475,0.585,0.6775,0.5175,0.88,0.79375,0.83125,0.72875,0.7875,0.76625,0.493988037109375,0.498614501953125,0.5346923828125,0.49655944266778435,0.5776985621521644,0.8616136134189465,0.5906337194862507,0.8707050718988905
0.58,0.58,0.6475,0.585,0.6775,0.5175,0.88,0.79375,0.83125,0.72875,0.7875,0.76625,0.4924530029296875,0.4979461669921875,0.5259033203125,0.49427126473062927,0.5757420043863056,0.8616136134189465,0.5906337194862507,0.8707050718988905
0.58,0.58,0.6475,0.585,0.6775,0.5175,0.88,0.79375,0.83125,0.72875,0.7875,0.76625,0.49110107421875,0.497613525390625,0.517364501953125,0.49494279511070827,0.5613331163458097,0.8762564887941503,0.6869401468964673,0.9289811592158861
0.58675,0.58575,0.6535,0.5870000000000001,0.68375,0.52025,0.8859999999999999,0.7955,0.83475,0.7425,0.789,0.77225,0.4900543212890625,0.4955718994140625,0.513275146484375,0.5045349032232326,0.5423976152492334,0.7903380875229651,0.512453987967419,0.8249843486563725
0.5935,0.5915,0.6595,0.589,0.69,0.523,0.892,0.7972499999999999,0.83825,0.75625,0.7905,0.77825,0.4899017333984375,0.4968505859375,0.5107421875,0.5086138289702639,0.5086552814916758,0.7102953511994945,0.3463785040422561,0.7110983378606223
0.60025,0.5972500000000001,0.6655,0.591,0.69625,0.52575,0.898,0.799,0.84175,0.77,0.792,0.78425,0.490899658203125,0.497772216796875,0.5149139404296875,0.5135218047565391,0.47647985221363376,0.6198830080177047,0.14864088650385632,0.534005070647997
0.607,0.603,0.6715000000000001,0.593,0.7025,0.5285,0.904,0.8007500000000001,0.8452500000000001,0.78375,0.7935,0.79025,0.4923583984375,0.4992401123046875,0.52353515625,0.5155944295304854,0.45347371631517136,0.6198830080177047,0.14864088650385632,0.534005070647997
0.61375,0.60875,0.6775,0.595,0.70875,0.53125,0.91,0.8025,0.84875,0.7975,0.795,0.79625,0.4943634033203125,0.5006103515625,0.5308502197265625,0.5128917267033738,0.446741830883422,0.5716775894201261,0.08701406492343937,0.4801211039829186
0.61375,0.60875,0.6775,0.595,0.70875,0.53125,0.91,0.8025,0.84875,0.7975,0.795,0.79625,0.4962677001953125,0.5002899169921875,0.5358734130859375,0.5087133148984704,0.4461863675114305,0.4819585246287401,0.0,0.3850377596064283
0.61375,0.60875,0.6775,0.595,0.70875,0.53125,0.91,0.8025,0.84875,0.7975,0.795,0.79625,0.4973175048828125,0.4997222900390625,0.53836669921875,0.5055048915986379,0.4559277048566368,0.42212460000381086,0.10961870047565295,0.28127887184398215
0.61375,0.60875,0.6775,0.595,0.70875,0.53125,0.91,0.8025,0.84875,0.7975,0.795,0.79625,0.4979095458984375,0.4996429443359375,0.53824462890625,0.5032664566742107,0.46908472793044564,0.42212460000381086,0.10961870047565295,0.28127887184398215
0.61375,0.60875,0.6775,0.595,0.70875,0.53125,0.91,0.8025,0.84875,0.7975,0.795,0.79625,0.49857177734375,0.49949951171875,0.53662109375,0.5012435749129923,0.4806997174151917,0.42212460000381086,0.10961870047565295,0.28127887184398215
0.61275,0.6085,0.6772499999999999,0.59525,0.7072499999999999,0.532,0.90625,0.80025,0.8454999999999999,0.79625,0.7922499999999999,0.79525,0.4981781005859375,0.4991729736328125,0.5355804443359375,0.501351351429764,0.4901840486219477,0.3965416268649454,0.16022908679655282,0.26274314283802486
0.61175,0.6082500000000001,0.677,0.5954999999999999,0.70575,0.53275,0.9025,0.7979999999999999,0.8422499999999999,0.795,0.7895,0.79425,0.4972412109375,0.499627685546875,0.5336883544921875,0.5020311723659916,0.49687448179161614,0.40157981193285824,0.18010680895134512,0.261048995279298
0.61075,0.608,0.67675,0.59575,0.7042499999999999,0.5335,0.89875,0.7957500000000001,0.8390000000000001,0.79375,0.78675,0.79325,0.4966156005859375,0.499951171875,0.5321136474609375,0.5023213398375856,0.5005388824541925,0.40157981193285824,0.18010680895134512,0.261048995279298
0.60975,0.60775,0.6765000000000001,0.596,0.7027500000000001,0.53425,0.895,0.7935,0.83575,0.7925,0.784,0.7922499999999999,0.4961334228515625,0.50003662109375,0.53096923828125,0.5013928039025514,0.50037307249821,0.3437434552799549,0.18101658650645414,0.20670923474561598
0.60875,0.6075,0.67625,0.59625,0.70125,0.535,0.89125,0.79125,0.8325,0.79125,0.78125,0.79125,0.4956512451171875,0.5001220703125,0.5298248291015625,0.5004642679675171,0.5002072625422274,0.3437434552799549,0.18101658650645414,0.20670923474561598
0.60875,0.6075,0.67625,0.59625,0.70125,0.535,0.89125,0.79125,0.8325,0.79125,0.78125,0.79125,0.49547119140625,0.5001953125,0.529132080078125,0.4988642015875711,0.4977615651404056,0.3253030349288711,0.172146102598207,0.19283646101863597
0.60875,0.6075,0.67625,0.59625,0.70125,0.535,0.89125,0.79125,0.8325,0.79125,0.78125,0.79125,0.4955902099609375,0.5000213623046875,0.5293365478515625,0.4975791741693749,0.4950505718219782,0.3043315000554737,0.1654155911289389,0.17973829357279736
0.61025,0.6095,0.6775,0.5972500000000001,0.7025,0.536,0.89325,0.7929999999999999,0.8327500000000001,0.792,0.782,0.7907500000000001,0.4957275390625,0.49976806640625,0.529779052734375,0.4962029512818716,0.4915851429509822,0.17389354489288517,0.15485654360841306,0.12061734148168209
0.61175,0.6114999999999999,0.67875,0.5982500000000001,0.70375,0.537,0.8952500000000001,0.79475,0.833,0.7927500000000001,0.7827500000000001,0.79025,0.4957794189453125,0.49947509765625,0.5304656982421875,0.4957884263270823,0.48946277503464247,0.16970618187689357,0.15577471554878872,0.12082797046463188
0.6132500000000001,0.6135,0.68,0.59925,0.705,0.5379999999999999,0.89725,0.7965000000000001,0.83325,0.7935,0.7835,0.78975,0.495550537109375,0.4991668701171875,0.5305145263671875,0.4959210743178015,0.48752279805691706,0.16759380989326791,0.1560806096802552,0.12126187825367493
0.615,0.61575,0.6807500000000001,0.6015,0.7075,0.54225,0.8955,0.7977500000000001,0.8305,0.78425,0.78125,0.7747499999999999,0.49647216796875,0.4992340087890625,0.531182861328125,0.4972392637012611,0.4867766530604971,0.1680152187873501,0.15638908815908448,0.1226933634182908
0.61675,0.618,0.6815000000000001,0.60375,0.71,0.5465,0.89375,0.799,0.8277500000000001,0.775,0.779,0.7597499999999999,0.4970550537109375,0.4993133544921875,0.5316162109375,0.49844967663278184,0.48793732301170634,0.3184003345823831,0.21851898274387813,0.2650097336207995
0.617,0.6182500000000001,0.6809999999999999,0.605,0.71125,0.54975,0.89,0.7985,0.82475,0.765,0.7759999999999999,0.7452500000000001,0.4973785400390625,0.499285888671875,0.5316986083984375,0.4995854750452107,0.49057370194070743,0.3263563232732524,0.21714648936799022,0.27520577845883815
0.61725,0.6185,0.6805,0.60625,0.7125,0.5529999999999999,0.88625,0.7979999999999999,0.82175,0.755,0.773,0.73075,0.4976898193359375,0.499493408203125,0.53135986328125,0.5006798209524358,0.49365776776544895,0.3263563232732524,0.21714648936799022,0.27520577845883815
0.6175,0.61875,0.68,0.6075,0.71375,0.55625,0.8825,0.7975,0.81875,0.745,0.77,0.71625,0.4982818603515625,0.4997161865234375,0.531658935546875,0.5012269939141525,0.49655944265157614,0.3389290985331002,0.1977298663937763,0.2763294580360296
0.61775,0.62,0.68,0.6085,0.7140000000000001,0.55775,0.8817499999999999,0.7972499999999999,0.81825,0.74275,0.7685,0.70625,0.4976654052734375,0.4995361328125,0.5313720703125,0.500654949454176,0.49785276065833733,0.3754392638597127,0.1515535123930471,0.2618411102839002
0.618,0.62125,0.68,0.6095,0.7142499999999999,0.55925,0.8809999999999999,0.797,0.8177500000000001,0.7404999999999999,0.767,0.69625,0.497271728515625,0.4993865966796875,0.5312255859375,0.500315038977958,0.49758746467689896,0.3758473201865276,0.14941401811525418,0.26327703588901114
0.6182500000000001,0.6225,0.68,0.6104999999999999,0.7145,0.5607500000000001,0.8802500000000001,0.79675,0.8172499999999999,0.7382500000000001,0.7655,0.68625,0.4969635009765625,0.4995697021484375,0.5312896728515625,0.500157519488979,0.4963024373235356,0.3758473201865276,0.14941401811525418,0.26327703588901114
0.6185,0.62375,0.68,0.6114999999999999,0.71475,0.56225,0.8795000000000001,0.7965000000000001,0.81675,0.736,0.764,0.67625,0.496734619140625,0.499591064453125,0.5315155029296875,0.4995606035145345,0.4934422149588204,0.33931579283131696,0.1472787229275596,0.2750830351508031
0.61975,0.62575,0.6807500000000001,0.6135,0.71625,0.56475,0.8795000000000001,0.7972499999999999,0.81575,0.7332500000000001,0.7625,0.662,0.4966094970703125,0.499627685546875,0.5318328857421875,0.4993865030267156,0.48972807127541196,0.33931579283131696,0.1472787229275596,0.2750830351508031
0.62075,0.6265,0.6815000000000001,0.6145,0.7175,0.56575,0.8802500000000001,0.79825,0.81525,0.73275,0.7625,0.6577500000000001,0.4966796875,0.4996612548828125,0.532061767578125,0.4996103465110542,0.4863289665294411,0.33426425519613673,0.14819737682405137,0.2755148828838691
0.62175,0.62725,0.6822499999999999,0.6154999999999999,0.71875,0.56675,0.8809999999999999,0.79925,0.81475,0.73225,0.7625,0.6535,0.496929931640625,0.4996185302734375,0.532049560546875,0.5000414524889957,0.48287182821459373,0.3305036389825899,0.15033751623995248,0.2733918392408409
0.62275,0.628,0.6829999999999999,0.6164999999999999,0.72,0.56775,0.8817499999999999,0.80025,0.8142499999999999,0.73175,0.7625,0.64925,0.4973724365234375,0.49949951171875,0.53209228515625,0.5006383684391279,0.47973801925556286,0.3145783038360101,0.15492352981615914,0.2697159549818596
0.62375,0.62875,0.68375,0.6175,0.72125,0.56875,0.8825,0.80125,0.81375,0.73125,0.7625,0.645,0.4979248046875,0.4995452880859375,0.531787109375,0.5013596418967675,0.4781545339230813,0.3070196904576567,0.156146789465366,0.26704803389273907
0.62375,0.62875,0.68375,0.6175,0.72125,0.56875,0.8825,0.80125,0.81375,0.73125,0.7625,0.645,0.4984375,0.4996002197265625,0.53125,0.5015420328921105,0.47788923794164295,0.3070196904576567,0.156146789465366,0.26704803389273907
0.6245,0.6295000000000001,0.68425,0.618,0.7215,0.5692499999999999,0.8815000000000001,0.80125,0.8134999999999999,0.731,0.7617499999999999,0.64375,0.498797607421875,0.499664306640625,0.5309906005859375,0.5015254518932706,0.4786768353298094,0.30620090625105867,0.15691055898433492,0.2603820313038199
0.62525,0.63025,0.68475,0.6185,0.72175,0.56975,0.8805,0.80125,0.81325,0.73075,0.7609999999999999,0.6425,0.4989593505859375,0.499810791015625,0.531011962890625,0.5012269939060483,0.47975460036786016,0.3079532838734283,0.1657737831913998,0.23061233060404673
0.626,0.631,0.68525,0.619,0.722,0.57025,0.8795000000000001,0.80125,0.813,0.7304999999999999,0.7602500000000001,0.64125,0.4991485595703125,0.49981689453125,0.5307861328125,0.5006134969570762,0.48089868933643765,0.3087960964640188,0.16623246500153752,0.2298372771246361
0.6267499999999999,0.6317499999999999,0.6857500000000001,0.6195,0.72225,0.57075,0.8785,0.80125,0.8127500000000001,0.7302500000000001,0.7595000000000001,0.64,0.4992279052734375,0.499822998046875,0.530780029296875,0.5001077765005635,0.4820179068959004,0.3087960964640188,0.16623246500153752,0.2298372771246361
0.6275,0.6325,0.68625,0.62,0.7225,0.57125,0.8775,0.80125,0.8125,0.73,0.75875,0.63875,0.499298095703125,0.4998077392578125,0.530926513671875,0.499668380023202,0.48300447633497845,0.30502479923617287,0.1666908242426211,0.2290558871681813
0.62775,0.63225,0.6865000000000001,0.62,0.7232500000000001,0.5715,0.8775,0.8015000000000001,0.81325,0.7297499999999999,0.759,0.63875,0.499456787109375,0.4997222900390625,0.5309356689453125,0.49955231303132275,0.48432266568602167,0.29788758955432765,0.16653771589236083,0.2277226082855597
0.628,0.632,0.68675,0.62,0.7240000000000001,0.57175,0.8775,0.80175,0.8140000000000001,0.7295,0.75925,0.63875,0.4997039794921875,0.4995880126953125,0.530914306640625,0.49948598903596314,0.4857486314890037,0.29579123649336364,0.16577297676876457,0.22627713100205493
0.62825,0.6317499999999999,0.687,0.62,0.7247499999999999,0.5720000000000001,0.8775,0.802,0.81475,0.72925,0.7595000000000001,0.63875,0.4999969482421875,0.4995452880859375,0.5308502197265625,0.49951915103364297,0.48725750246447536,0.29579123649336364,0.16577297676876457,0.22627713100205493
0.6285000000000001,0.6315,0.6872499999999999,0.62,0.7254999999999999,0.57225,0.8775,0.8022499999999999,0.8155,0.7290000000000001,0.7597499999999999,0.63875,0.50028076171875,0.499560546875,0.5306549072265625,0.4994776985446473,0.489048250144686,0.2878245615906214,0.16867866173089716,0.22736719080215048
0.629,0.6315,0.6877500000000001,0.62025,0.72625,0.5725,0.8759999999999999,0.8022499999999999,0.81625,0.728,0.76,0.63825,0.500421142578125,0.499566650390625,0.5305908203125,0.4994196650568118,0.4910048079105448,0.2878245615906214,0.16867866173089716,0.22736719080215048
0.62925,0.6317499999999999,0.688,0.6204999999999999,0.72625,0.5725,0.8745,0.802,0.81625,0.72725,0.76,0.63775,0.5004608154296875,0.4995330810546875,0.530682373046875,0.4990880450638056,0.4923644499126656,0.2890834451669315,0.1686797926200515,0.22725072859707926
0.6295000000000001,0.632,0.68825,0.62075,0.72625,0.5725,0.873,0.80175,0.81625,0.7265,0.76,0.63725,0.5005279541015625,0.4996246337890625,0.530584716796875,0.498698391591068,0.49374067283258527,0.29792763686098184,0.17739765582654954,0.23477498457162463
0.62975,0.63225,0.6884999999999999,0.621,0.72625,0.5725,0.8715,0.8015000000000001,0.81625,0.72575,0.76,0.6367499999999999,0.500518798828125,0.4997039794921875,0.5306549072265625,0.49822583314033914,0.49525783423454006,0.2983383647407649,0.17877386254148966,0.23433404918093947
0.63,0.6325,0.68875,0.62125,0.72625,0.5725,0.87,0.80125,0.81625,0.725,0.76,0.63625,0.50048828125,0.49969482421875,0.53065185546875,0.49779472713808537,0.49671696219728384,0.2979222989526192,0.17938533013283356,0.2348896418620511
0.63,0.6325,0.68875,0.62125,0.72625,0.5725,0.87,0.80125,0.81625,0.725,0.76,0.63625,0.500689697265625,0.4996368408203125,0.530157470703125,0.4972724256665245,0.49899684957829027,0.3008748119738671,0.18106791862775132,0.2334417204086953
0.63,0.6325,0.68875,0.62125,0.72625,0.5725,0.87,0.80125,0.81625,0.725,0.76,0.63625,0.5009124755859375,0.4996490478515625,0.5295074462890625,0.4967252527210161,0.5019731388781561,0.2983623931247574,0.18091464709549895,0.23310944718806506
0.63,0.6325,0.6890000000000001,0.62125,0.726,0.573,0.872,0.80125,0.81625,0.726,0.7597499999999999,0.637,0.500933837890625,0.4994598388671875,0.5296966552734375,0.49627756576854704,0.5059277069961184,0.2983623931247574,0.18091464709549895,0.23310944718806506
0.63,0.6325,0.6892499999999999,0.62125,0.72575,0.5735,0.8740000000000001,0.80125,0.81625,0.727,0.7595000000000001,0.63775,0.500848388671875,0.4992950439453125,0.5298187255859375,0.4959293647442846,0.5097827892831234,0.29087586489838135,0.19207015136156297,0.2141557279878873
0.63,0.6325,0.6895,0.62125,0.7254999999999999,0.574,0.8759999999999999,0.80125,0.81625,0.728,0.75925,0.6385000000000001,0.500823974609375,0.499212646484375,0.52998046875,0.49562261630626697,0.513753938513383,0.29010781421031046,0.19986516158147083,0.20429945990883705
0.63,0.6325,0.68975,0.62125,0.7252500000000001,0.5745,0.878,0.80125,0.81625,0.7290000000000001,0.759,0.63925,0.500830078125,0.4992034912109375,0.5300750732421875,0.4954236443201882,0.5173520155047637,0.29264158989044436,0.20368788949228972,0.20330146547531716
0.63,0.6325,0.69,0.62125,0.725,0.575,0.88,0.80125,0.81625,0.73,0.75875,0.64,0.5008697509765625,0.4991546630859375,0.5297210693359375,0.49536561081614444,0.5215967509484465,0.2830827421846706,0.20535723937373432,0.1919035682792432
0.63,0.6325,0.69,0.6214999999999999,0.72575,0.5755,0.88,0.80175,0.8170000000000001,0.7304999999999999,0.75925,0.6435,0.5013671875,0.4989227294921875,0.5275390625,0.4960205602460081,0.5289835864259709,0.2830827421846706,0.20535723937373432,0.1919035682792432
0.63,0.6325,0.69,0.62175,0.7265,0.5760000000000001,0.88,0.8022499999999999,0.8177500000000001,0.731,0.7597499999999999,0.647,0.501715087890625,0.4987152099609375,0.527587890625,0.49762062669078694,0.5401757602052807,0.29606891167969585,0.19465541330253947,0.2025897094763266
0.63,0.6325,0.69,0.622,0.72725,0.5765,0.88,0.8027500000000001,0.8184999999999999,0.7315,0.7602500000000001,0.6505,0.5008758544921875,0.498455810546875,0.530084228515625,0.5018902338029155,0.5525368946216139,0.3745114657388041,0.16973299386393775,0.21968834090929493
0.62725,0.6295000000000001,0.6877500000000001,0.62025,0.7254999999999999,0.5725,0.8767499999999999,0.8007500000000001,0.8170000000000001,0.73075,0.7615000000000001,0.66625,0.499749755859375,0.4985015869140625,0.5305572509765625,0.5027441552512744,0.549278728098347,0.3858360384366409,0.17416767321968166,0.2325807382725012
0.6245,0.6265,0.6855,0.6185,0.72375,0.5685,0.8734999999999999,0.79875,0.8155,0.73,0.76275,0.682,0.49862060546875,0.4986053466796875,0.531414794921875,0.5035234622129579,0.5445780151784629,0.3858360384366409,0.17416767321968166,0.2325807382725012
0.62175,0.6235,0.68325,0.6164999999999999,0.72125,0.564,0.8702500000000001,0.79625,0.81325,0.72875,0.7635,0.6942499999999999,0.497296142578125,0.49903564453125,0.5334014892578125,0.503374233239607,0.5353423983870186,0.403401608351811,0.1772285651283912,0.26358079636481807
0.619,0.6204999999999999,0.6809999999999999,0.6145,0.71875,0.5595,0.867,0.79375,0.8109999999999999,0.7275,0.76425,0.7065,0.4960784912109375,0.4993927001953125,0.533062744140625,0.5019814293370555,0.5218040132313427,0.4172225809760959,0.1767711754919349,0.2795863939189189
0.61625,0.6175,0.67875,0.6125,0.71625,0.555,0.86375,0.79125,0.80875,0.72625,0.765,0.71875,0.4959625244140625,0.499688720703125,0.5306060791015625,0.4978361797243302,0.5061764220597579,0.4364897949951084,0.17080927776984225,0.2949368838591791
0.6132500000000001,0.61375,0.6755,0.60925,0.7125,0.54975,0.8640000000000001,0.7905,0.8109999999999999,0.72725,0.7665000000000001,0.72625,0.49600830078125,0.4996673583984375,0.5307464599609375,0.4970734537452785,0.5050903666276404,0.48048115583730844,0.15965215876104275,0.3300765126378771
0.61025,0.61,0.6722499999999999,0.606,0.70875,0.5445,0.86425,0.78975,0.81325,0.7282500000000001,0.768,0.73375,0.496099853515625,0.4996856689453125,0.531304931640625,0.4965594427650335,0.5043276406485887,0.5014420044988328,0.1555257965996011,0.3481920287760843
0.6072500000000001,0.60625,0.669,0.60275,0.705,0.53925,0.8645,0.789,0.8155,0.72925,0.7695000000000001,0.74125,0.49625244140625,0.4996490478515625,0.5321197509765625,0.4967003812470685,0.5048001992370873,0.5249019246397736,0.1527759656196187,0.36875628978582986
0.60425,0.6025,0.6657500000000001,0.5995,0.70125,0.534,0.8647499999999999,0.78825,0.8177500000000001,0.7302500000000001,0.7709999999999999,0.74875,0.496514892578125,0.4998077392578125,0.5334747314453125,0.4541286658098678,0.5097496273502763,0.5249019246397736,0.1527759656196187,0.36875628978582986
0.60125,0.59875,0.6625,0.59625,0.6975,0.52875,0.865,0.7875,0.82,0.73125,0.7725,0.75625,0.496826171875,0.4997772216796875,0.5352203369140625,0.4545349002733412,0.5136544525203436,0.8119312730212891,0.1460706335112205,0.5954949216914546
0.60125,0.59875,0.6625,0.59625,0.6975,0.52875,0.865,0.7875,0.82,0.73125,0.7725,0.75625,0.497308349609375,0.50035400390625,0.53802490234375,0.4539545652977366,0.5203863380493421,0.8295128618591208,0.1511175868809435,0.6166052994051922
0.60125,0.59875,0.6625,0.59625,0.6975,0.52875,0.865,0.7875,0.82,0.73125,0.7725,0.75625,0.497662353515625,0.4999908447265625,0.542584228515625,0.4405654085967494,0.5333112266531466,0.8462596527652668,0.15769272822164263,0.6352744287763724
0.60125,0.59875,0.6625,0.59625,0.6975,0.52875,0.865,0.7875,0.82,0.73125,0.7725,0.75625,0.4980926513671875,0.4999481201171875,0.5486114501953125,0.4374647618298967,0.5518902359099809,0.86635098889924,0.1748148150509438,0.659508043408305
0.6045,0.59775,0.6657500000000001,0.5954999999999999,0.701,0.52825,0.8675,0.7877500000000001,0.82325,0.7382500000000001,0.7752500000000001,0.75875,0.49913330078125,0.500653076171875,0.5541168212890625,0.4791079412672304,0.5855579559588562,0.8659189041884329,0.17939856874630672,0.6645382942613984
0.60775,0.59675,0.669,0.59475,0.7045,0.5277499999999999,0.87,0.7879999999999999,0.8265,0.7452500000000001,0.778,0.76125,0.4997528076171875,0.5019195556640625,0.5573150634765625,0.47668711546902165,0.6262228545682772,0.8659189041884329,0.17939856874630672,0.6645382942613984
0.611,0.59575,0.6722499999999999,0.594,0.708,0.52725,0.8725,0.78825,0.82975,0.75225,0.78075,0.76375,0.500152587890625,0.5025726318359375,0.559295654296875,0.47533576415271506,0.6641933408419025,0.8453313972578577,0.17571280745078807,0.6534347888074841
0.61425,0.59475,0.6755,0.59325,0.7115,0.5267499999999999,0.875,0.7885,0.833,0.75925,0.7835,0.76625,0.5003448486328125,0.5036865234375,0.5622283935546875,0.4855911120891697,0.7048665328601142,0.8235357454670738,0.17891631852310463,0.6407030071185931
0.6175,0.59375,0.67875,0.5925,0.715,0.52625,0.8775,0.78875,0.83625,0.76625,0.78625,0.76875,0.5002777099609375,0.5049560546875,0.564434814453125,0.48133808608933837,0.74267950193822,0.8235357454670738,0.17891631852310463,0.6407030071185931
0.6175,0.59375,0.67875,0.5925,0.715,0.52625,0.8775,0.78875,0.83625,0.76625,0.78625,0.76875,0.4984039306640625,0.5056671142578125,0.565325927734375,0.4754849935150626,0.7639280513437418,0.7912289620791144,0.1851766855960244,0.6236306895888013
0.6175,0.59375,0.67875,0.5925,0.715,0.52625,0.8775,0.78875,0.83625,0.76625,0.78625,0.76875,0.496905517578125,0.5060516357421875,0.5680328369140625,0.47085060426637426,0.7796219691039974,0.7237349674339253,0.2016739011410514,0.5838074467935239
0.62,0.596,0.6815000000000001,0.597,0.7190000000000001,0.53225,0.8865000000000001,0.79625,0.8405,0.7735,0.79,0.77225,0.4937774658203125,0.5088775634765625,0.5703765869140625,0.4675426951842089,0.793682656898224,0.4396741509963193,0.28343091777743845,0.35181848290661927
0.6225,0.5982500000000001,0.68425,0.6015,0.723,0.53825,0.8955,0.80375,0.8447499999999999,0.78075,0.79375,0.77575,0.4996734619140625,0.5075775146484375,0.555621337890625,0.47876803118811323,0.7681230452658505,0.40574848967079385,0.28159328362047076,0.31814415953782277
0.625,0.6004999999999999,0.687,0.606,0.727,0.54425,0.9045000000000001,0.81125,0.8490000000000001,0.7879999999999999,0.7975,0.77925,0.5002960205078125,0.5059112548828125,0.53885498046875,0.49057370223245494,0.7337920859117069,0.40574848967079385,0.28159328362047076,0.31814415953782277
0.6275,0.60275,0.68975,0.6104999999999999,0.731,0.55025,0.9135,0.81875,0.8532500000000001,0.79525,0.80125,0.7827500000000001,0.504052734375,0.507342529296875,0.532537841796875,0.501094346150348,0.6877383605560456,0.15174056509623945,0.1852636160586389,0.0993071846000572
0.63075,0.611,0.6915,0.61575,0.7340000000000001,0.5589999999999999,0.9227500000000001,0.8272499999999999,0.85575,0.8022499999999999,0.8045,0.785,0.5145751953125,0.506439208984375,0.5224884033203125,0.5134057377484517,0.6253772226387426,0.15174056509623945,0.1852636160586389,0.0993071846000572
0.6315,0.617,0.6905,0.6164999999999999,0.733,0.56175,0.9229999999999999,0.82825,0.8540000000000001,0.802,0.804,0.78375,0.52642822265625,0.50294189453125,0.5141510009765625,0.5237108282438048,0.5523296321442193,0.11068837510316791,0.15468809994582794,0.05083810345871959
0.63225,0.623,0.6895,0.61725,0.732,0.5645,0.92325,0.8292499999999999,0.85225,0.80175,0.8035,0.7825,0.528900146484375,0.50440673828125,0.520849609375,0.5211076117663129,0.5058945448363567,0.1014601554662952,0.14582164625329203,0.042046682449756206
0.633,0.629,0.6884999999999999,0.618,0.731,0.56725,0.9235,0.83025,0.8504999999999999,0.8015000000000001,0.8029999999999999,0.78125,0.536651611328125,0.5057830810546875,0.5285491943359375,0.5217211087720137,0.46447520950737714,0.1014601554662952,0.14582164625329203,0.042046682449756206
0.63375,0.635,0.6875,0.61875,0.73,0.57,0.92375,0.83125,0.84875,0.80125,0.8025,0.78,0.5433502197265625,0.5035491943359375,0.52713623046875,0.527549329548178,0.4320759370286398,0.09433896470711166,0.14230626972707813,0.031478457903525735
0.63375,0.635,0.6875,0.61875,0.73,0.57,0.92375,0.83125,0.84875,0.80125,0.8025,0.78,0.5435516357421875,0.5029144287109375,0.5291839599609375,0.5337091704956386,0.4143840104074345,0.08219293624970869,0.1297716518296571,0.012231711686941201
0.63375,0.635,0.6875,0.61875,0.73,0.57,0.92375,0.83125,0.84875,0.80125,0.8025,0.78,0.543719482421875,0.501458740234375,0.529364013671875,0.5406648996467454,0.40504061872003794,0.07883236690164588,0.11784688867830949,0.005114379501796201
0.63375,0.635,0.6875,0.61875,0.73,0.57,0.92375,0.83125,0.84875,0.80125,0.8025,0.78,0.54359130859375,0.4991943359375,0.5283477783203125,0.5450422832108128,0.3940557078071194,0.0918185363966711,0.11509398949738307,0.002224498070445309
0.634,0.635,0.68825,0.619,0.73,0.56975,0.92425,0.83175,0.84875,0.8022499999999999,0.8029999999999999,0.782,0.5412078857421875,0.496728515625,0.5271759033203125,0.5463190200404441,0.3773669316076238,0.0863509329733452,0.11509512038653744,0.002226683594275368
0.63425,0.635,0.6890000000000001,0.61925,0.73,0.5695,0.92475,0.8322499999999999,0.84875,0.80325,0.8035,0.784,0.536419677734375,0.494586181640625,0.5259735107421875,0.5405405420825092,0.3558447961831772,0.08970883596601362,0.11524790616774364,0.002115378888992983
0.6345000000000001,0.635,0.68975,0.6195,0.73,0.5692499999999999,0.92525,0.8327500000000001,0.84875,0.80425,0.804,0.7859999999999999,0.52904052734375,0.493548583984375,0.52451171875,0.5304758759649815,0.3324655907039798,0.09139446114719453,0.11585937565655254,0.003448409639659534
0.63475,0.635,0.6905,0.61975,0.73,0.569,0.9257500000000001,0.83325,0.84875,0.80525,0.8045,0.7879999999999999,0.51959228515625,0.4941070556640625,0.52227783203125,0.5194080591502045,0.3110429409159923,0.0918185363966711,0.11555428605025628,0.003004949471284842
0.635,0.635,0.69125,0.62,0.73,0.56875,0.92625,0.83375,0.84875,0.80625,0.805,0.79,0.50938720703125,0.495556640625,0.5196990966796875,0.5101226997917576,0.2953241522652842,0.0918185363966711,0.11555428605025628,0.003004949471284842
0.635,0.635,0.69125,0.62,0.73,0.56875,0.92625,0.83375,0.84875,0.80625,0.805,0.79,0.49755859375,0.5000457763671875,0.5140899658203125,0.5073702538222526,0.29350853576926983,0.09054897700363586,0.11586018207918779,0.0026684299699096807
0.63525,0.63525,0.6915,0.62,0.7295,0.56825,0.9257500000000001,0.83325,0.8482500000000001,0.80625,0.8055,0.7907500000000001,0.4833160400390625,0.50501708984375,0.50904541015625,0.5170038141968579,0.3174680786228846,0.08970616441304538,0.11555380219667515,0.0026696797418753635
0.6355,0.6355,0.69175,0.62,0.7290000000000001,0.56775,0.92525,0.8327500000000001,0.84775,0.80625,0.8059999999999999,0.7915000000000001,0.47191162109375,0.5065582275390625,0.5032470703125,0.5315453505522367,0.3523793696461612,0.09222659272348593,0.11570691054693542,0.0026685281011913386
0.63575,0.63575,0.6920000000000001,0.62,0.7284999999999999,0.56725,0.92475,0.8322499999999999,0.84725,0.80625,0.8065000000000001,0.7922499999999999,0.463385009765625,0.505413818359375,0.4977203369140625,0.5463770544440425,0.3909550621100075,0.09012490175415933,0.11631838003574432,0.001558330360224194
0.636,0.636,0.6922499999999999,0.62,0.728,0.56675,0.92425,0.83175,0.84675,0.80625,0.807,0.7929999999999999,0.4552886962890625,0.5013824462890625,0.4921661376953125,0.5576770046833953,0.42924058951728067,0.09012490175415933,0.11631838003574432,0.001558330360224194
0.63625,0.63625,0.6925,0.62,0.7275,0.56625,0.92375,0.83125,0.84625,0.80625,0.8075,0.79375,0.4494140625,0.49390869140625,0.48857421875,0.5591692949355663,0.465312550621432,0.08929009862489969,0.11555444733478334,0.002890201759891727
0.63625,0.63625,0.6925,0.62,0.7275,0.56625,0.92375,0.83125,0.84625,0.80625,0.8075,0.79375,0.44697265625,0.4867218017578125,0.4846771240234375,0.5493533436223469,0.48827723399848233,0.08929009862489969,0.11555444733478334,0.002890201759891727
0.63625,0.63625,0.6925,0.62,0.7275,0.56625,0.92375,0.83125,0.84625,0.80625,0.8075,0.79375,0.4449066162109375,0.4835205078125,0.48236083984375,0.5352760752344851,0.510147571743847,0.09264799641999427,0.11555412476572924,0.0032250144779037778
0.63625,0.63625,0.6925,0.62,0.7275,0.56625,0.92375,0.83125,0.84625,0.80625,0.8075,0.79375,0.444427490234375,0.482855224609375,0.4808349609375,0.51864533292803,0.5327391829468512,0.09222659272348593,0.11616591682359224,0.0033345878670026294
0.63575,0.636,0.6922499999999999,0.6204999999999999,0.72675,0.56475,0.92325,0.831,0.84675,0.8065000000000001,0.8075,0.79375,0.447174072265625,0.4855560302734375,0.480084228515625,0.5036478200689414,0.5554385706017942,0.08970883596601362,0.11631854132027136,0.001781268510582517
0.63525,0.63575,0.6920000000000001,0.621,0.726,0.56325,0.9227500000000001,0.83075,0.84725,0.80675,0.8075,0.79375,0.4375946044921875,0.47420654296875,0.5022735595703125,0.4640689757570643,0.5650887115700345,0.08802320558725883,0.11631870260479843,0.002111245459222018
0.63475,0.6355,0.69175,0.6214999999999999,0.7252500000000001,0.56175,0.9222499999999999,0.8305,0.84775,0.807,0.8075,0.79375,0.4183868408203125,0.4747833251953125,0.489971923828125,0.4676587621922964,0.4968164482227396,0.09013023966252191,0.11586082721729599,0.002891112978935691
0.63425,0.63525,0.6915,0.622,0.7245,0.56025,0.92175,0.83025,0.8482500000000001,0.8072499999999999,0.8075,0.79375,0.3982879638671875,0.4744354248046875,0.477374267578125,0.47276571002948325,0.4221439190963294,0.08844728603430921,0.1154018228381042,0.002446060980984971
0.63375,0.635,0.69125,0.6225,0.72375,0.55875,0.92125,0.83,0.84875,0.8075,0.8075,0.79375,0.4140380859375,0.4914703369140625,0.5202667236328125,0.45589454444736,0.31604210296532054,0.08969815495171458,0.11540166155357716,0.0022219634796276358
0.63375,0.635,0.69125,0.6225,0.72375,0.55875,0.92125,0.83,0.84875,0.8075,0.8075,0.79375,0.4300079345703125,0.4895172119140625,0.5610626220703125,0.44723926269635306,0.25550487637914354,0.08969815495171458,0.11540166155357716,0.0022219634796276358
0.63375,0.635,0.69125,0.6225,0.72375,0.55875,0.92125,0.83,0.84875,0.8075,0.8075,0.79375,0.4538330078125,0.50888671875,0.559765625,0.4650638365302842,0.21145745368221958,0.09054096754230502,0.11540214540715829,0.0023359009070093467
0.63375,0.635,0.69125,0.6225,0.72375,0.55875,0.92125,0.83,0.84875,0.8075,0.8075,0.79375,0.48282470703125,0.507989501953125,0.5918670654296875,0.43844304252814387,0.24282041416298045,0.09054096754230502,0.11540214540715829,0.0023359009070093467
0.6267499999999999,0.62775,0.6855,0.618,0.71825,0.5529999999999999,0.9165000000000001,0.823,0.846,0.8005,0.8015000000000001,0.79,0.5151947021484375,0.5093170166015625,0.620831298828125,0.42661249955602515,0.29251366799411,0.09011955864822287,0.11601377618049424,0.0028952709415270687
0.61975,0.6204999999999999,0.67975,0.6135,0.7127500000000001,0.54725,0.91175,0.816,0.84325,0.7935,0.7955,0.78625,0.5121826171875,0.4939300537109375,0.5953948974609375,0.4399104598152135,0.37126512584985916,0.08254759270260215,0.11524919834142507,0.002223181008457919
0.61275,0.6132500000000001,0.674,0.609,0.7072499999999999,0.5415,0.907,0.809,0.8405,0.7865000000000001,0.7895,0.7825,0.504547119140625,0.496533203125,0.5668792724609375,0.4510197293296926,0.4175261122565939,0.08715102670431331,0.11509931757917079,0.0025586084488557754
0.60575,0.606,0.66825,0.6045,0.70175,0.5357500000000001,0.90225,0.802,0.8377500000000001,0.7795000000000001,0.7835,0.77875,0.50078125,0.4931671142578125,0.556341552734375,0.4690266938429069,0.45840656428855475,0.08715102670431331,0.11494620733144548,0.001782305197479459
0.59875,0.59875,0.6625,0.6,0.69625,0.53,0.8975,0.795,0.835,0.7725,0.7775,0.775,0.5022216796875,0.4973876953125,0.5462615966796875,0.4897114900982819,0.492770683792644,0.08715102670431331,0.11494620733144548,0.001782305197479459
0.59875,0.59875,0.6625,0.6,0.69625,0.53,0.8975,0.795,0.835,0.7725,0.7775,0.775,0.5002838134765625,0.49930419921875,0.5393096923828125,0.4945697228718294,0.503672690797312,0.08674029882453019,0.11586292581361264,0.0020014337512962842
0.5985,0.59775,0.662,0.59875,0.69575,0.52825,0.8935,0.79375,0.83175,0.765,0.7755,0.7705,0.4959228515625,0.499798583984375,0.53167724609375,0.5004311060670865,0.5140606868541514,0.08674029882453019,0.11586292581361264,0.0020014337512962842
0.5982500000000001,0.59675,0.6615000000000001,0.5975,0.69525,0.5265,0.8895000000000001,0.7925,0.8284999999999999,0.7575,0.7735,0.7659999999999999,0.49412841796875,0.5003082275390625,0.5291412353515625,0.502039462905932,0.5106201295219358,0.08968480238444727,0.11601555031029177,0.0032223593257972123
0.598,0.59575,0.6609999999999999,0.59625,0.69475,0.52475,0.8855,0.79125,0.82525,0.75,0.7715000000000001,0.7615000000000001,0.4948272705078125,0.50006103515625,0.52940673828125,0.5011689604425251,0.5032415852488877,0.0896661119088174,0.11632128505469623,0.003001614409583936
0.59775,0.59475,0.6605,0.595,0.6942499999999999,0.523,0.8815000000000001,0.79,0.8220000000000001,0.7425,0.7695000000000001,0.757,0.4954376220703125,0.4996612548828125,0.530438232421875,0.5010031504217097,0.49780301762940127,0.09094635231615168,0.11525145822226877,0.00355809097316821
0.5985,0.5935,0.6609999999999999,0.59375,0.6942499999999999,0.5215,0.8775,0.78825,0.818,0.736,0.76825,0.75225,0.4960479736328125,0.4993408203125,0.5314788818359375,0.5018736528527002,0.4974962691589672,0.09010353972556123,0.11555670721562705,0.002670600774047488
0.5995,0.59325,0.662,0.59375,0.69475,0.5217499999999999,0.8775,0.7877500000000001,0.8172499999999999,0.737,0.769,0.752,0.4964691162109375,0.4994171142578125,0.5323394775390625,0.5017824573833931,0.49927043598621174,0.0909410144077891,0.11601603606133795,0.0037782639241969703
0.6004999999999999,0.593,0.6629999999999999,0.59375,0.69525,0.522,0.8775,0.7872499999999999,0.8165,0.738,0.7697499999999999,0.7517499999999999,0.4966461181640625,0.49945068359375,0.5328765869140625,0.5016746808828297,0.5025451832327793,0.09009285871126217,0.11601538902576473,0.0021158359003904167
0.6015,0.59275,0.664,0.59375,0.69575,0.52225,0.8775,0.78675,0.81575,0.7390000000000001,0.7705,0.7515000000000001,0.496563720703125,0.499267578125,0.5331329345703125,0.5022633063173337,0.5066158184236619,0.09135173708999833,0.11555719106920818,0.0035594739233018586
