C0,C1,C2,C3,C4,C5,C6,C7,C8,C9,C10,C11,Ax,Ay,Az,Gr,Gp,Fx_norm,Fy_norm,Fz_norm
0.62875,0.6275,0.6829166666666667,0.6204166666666666,0.71375,0.55375,0.8958333333333333,0.82375,0.84125,0.7575,0.7829166666666667,0.7179166666666668,0.4953475643130816,0.49953942889182584,0.5407505306580159,0.5,0.4992514108038135,0.4530286187732284,0.4456701500829996,0.2140437296812484
0.62875,0.6275,0.683125,0.6203125,0.71375,0.55375,0.8959375,0.82375,0.84125,0.7575,0.7828125,0.7178125,0.4954043013336537,0.49957947855340623,0.5406904561656454,0.500028791892161,0.4992514108038135,0.4530286187732284,0.4456701500829996,0.2140437296812484
0.62875,0.6275,0.68325,0.62025,0.71375,0.55375,0.8959999999999999,0.82375,0.84125,0.7575,0.7827500000000001,0.7177500000000001,0.49541831871520686,0.4996075133165125,0.5406944611318034,0.5000230335137288,0.4991938270194915,0.4530286187732284,0.4456701500829996,0.2140437296812484
0.62875,0.6275,0.68375,0.62,0.71375,0.55375,0.89625,0.82375,0.84125,0.7575,0.7825,0.7175,0.49542632864752295,0.49961952821498656,0.5406584164363811,0.5000691005411865,0.49910169297583407,0.4530286187732284,0.4456701500829996,0.2140437296812484
0.62875,0.6275,0.68375,0.62,0.71375,0.55375,0.89625,0.82375,0.84125,0.7575,0.7825,0.7175,0.4954223236813649,0.4996796027073571,0.5406383916055909,0.5001612345961017,0.4990210756777832,0.4530286187732284,0.4456701500829996,0.2140437296812484
0.62875,0.6275,0.68375,0.62,0.71375,0.55375,0.89625,0.82375,0.84125,0.7575,0.7825,0.7175,0.49535423925667826,0.4996235331811446,0.5406624214025392,0.5001842681098305,0.49894045837973233,0.4530286187732284,0.4456701500829996,0.2140437296812484
0.62875,0.6275,0.68375,0.62,0.71375,0.55375,0.89625,0.82375,0.84125,0.7575,0.7825,0.7175,0.49533020945973005,0.4995514437903,0.5407184909287517,0.5002073016235593,0.49882529079983046,0.4530286187732284,0.4456701500829996,0.2140437296812484
0.62875,0.6275,0.68375,0.62,0.71375,0.55375,0.89625,0.82375,0.84125,0.7575,0.7825,0.7175,0.4953502342905202,0.49950338419640355,0.5407224958949097,0.5002764021647458,0.4987331567449152,0.4530286187732284,0.4456701500829996,0.2140437296812484
0.62875,0.6275,0.68375,0.62,0.7134999999999999,0.55375,0.8955,0.8240000000000001,0.84125,0.7575,0.7825,0.7175,0.49546237334294524,0.49946333453482317,0.5407305058272258,0.500310952435339,0.4987331567449152,0.4530286187732284,0.4456701500829996,0.2140437296812484
0.62875,0.6275,0.68375,0.62,0.71325,0.55375,0.8947499999999999,0.8242499999999999,0.84125,0.7575,0.7825,0.7175,0.4955384676999479,0.49940726500861066,0.5407184909287517,0.500310952435339,0.4987331567449152,0.4530286187732284,0.4456701500829996,0.2140437296812484
0.62875,0.6275,0.68375,0.62,0.713,0.55375,0.894,0.8245,0.84125,0.7575,0.7825,0.7175,0.495546477632264,0.4994112699747687,0.5407104809964356,0.5002879189216102,0.498675572971851,0.4530286187732284,0.4456701500829996,0.2140437296812484
0.62875,0.6275,0.68375,0.62,0.7127500000000001,0.55375,0.89325,0.82475,0.84125,0.7575,0.7825,0.7175,0.49555048259842205,0.49943129480555887,0.540646401537907,0.500253368651017,0.49869860650809544,0.4530286187732284,0.4456701500829996,0.2140437296812484
0.62875,0.6275,0.68375,0.62,0.7125,0.55375,0.8925,0.825,0.84125,0.7575,0.7825,0.7175,0.4955384676999479,0.4993872401778205,0.5406103568424847,0.5002418518941526,0.49869860650809544,0.4530286187732284,0.4456701500829996,0.2140437296812484
0.62875,0.62725,0.68375,0.62,0.7125,0.55375,0.89275,0.82475,0.84075,0.75725,0.7822499999999999,0.71675,0.49551844286915775,0.4993992550762946,0.5405783171132204,0.5001727513529661,0.4986410227125156,0.4530286187732284,0.4456701500829996,0.2140437296812484
0.62875,0.627,0.68375,0.62,0.7125,0.55375,0.893,0.8245,0.84025,0.757,0.782,0.716,0.4955304577676319,0.4994272898394009,0.5405903320116945,0.5001266843255084,0.49861798919878675,0.4530286187732284,0.4456701500829996,0.2140437296812484
0.62875,0.6267499999999999,0.68375,0.62,0.7125,0.55375,0.89325,0.8242499999999999,0.83975,0.7567499999999999,0.78175,0.71525,0.4955705074292122,0.499443309704033,0.5405823220793784,0.5001612345961017,0.4986064724306645,0.4530286187732284,0.4456701500829996,0.2140437296812484
0.62875,0.6265,0.68375,0.62,0.7125,0.55375,0.8935,0.8240000000000001,0.8392499999999999,0.7565000000000001,0.7815000000000001,0.7145,0.4955905322600024,0.4994192799070848,0.5406343866394329,0.5002073016235593,0.4985834388944201,0.4530286187732284,0.4456701500829996,0.2140437296812484
0.62875,0.62625,0.68375,0.62,0.7125,0.55375,0.89375,0.82375,0.83875,0.75625,0.78125,0.71375,0.49554247266610596,0.4994593295686651,0.5406944611318034,0.5002648854078814,0.4985949556625423,0.4530286187732284,0.4456701500829996,0.2140437296812484
0.62875,0.62625,0.68375,0.62,0.7125,0.55375,0.89375,0.82375,0.83875,0.75625,0.78125,0.71375,0.4954823981737354,0.49954743882414193,0.540754535624174,0.5003915697333898,0.49867557294933534,0.4530286187732284,0.4456701500829996,0.2140437296812484
0.62875,0.62625,0.6835,0.62,0.7125,0.55375,0.8935,0.8234999999999999,0.83875,0.75575,0.7809999999999999,0.71325,0.4954583683767872,0.4994993792302455,0.5407505306580159,0.5004146032471186,0.4986986064630642,0.4530286187732284,0.4456701500829996,0.2140437296812484
0.62875,0.62625,0.68325,0.62,0.7125,0.55375,0.89325,0.82325,0.83875,0.7552500000000001,0.78075,0.7127500000000001,0.49548640313989345,0.49950338419640355,0.5407985902519123,0.5005067373020339,0.4987677070042506,0.4530286187732284,0.4456701500829996,0.2140437296812484
0.62875,0.62625,0.6829999999999999,0.62,0.7125,0.55375,0.893,0.823,0.83875,0.7547499999999999,0.7805,0.7122499999999999,0.49546237334294524,0.49950338419640355,0.5408066001842284,0.5005297708157628,0.4987446735130374,0.4530286187732284,0.4456701500829996,0.2140437296812484
0.62875,0.62625,0.6827500000000001,0.62,0.7125,0.55375,0.89275,0.8227500000000001,0.83875,0.75425,0.7802500000000001,0.71175,0.4955024230045256,0.4995314189595098,0.5407905803195963,0.5005873546000847,0.49882529079983046,0.4530263224098005,0.44427406366381766,0.2143386690160967
0.62875,0.62625,0.6825,0.62,0.7125,0.55375,0.8925,0.8225,0.83875,0.75375,0.78,0.71125,0.4955705074292122,0.49948335936561333,0.5407745604549642,0.5005297708157628,0.4987792237723728,0.4530263224098005,0.44427406366381766,0.2143386690160967
0.62875,0.62625,0.6827500000000001,0.62,0.7125,0.55375,0.8925,0.8225,0.8384999999999999,0.7535,0.78,0.711,0.4955865272938444,0.49948335936561333,0.5407825703872802,0.5006334216275424,0.49880225728610167,0.4533908410643714,0.4439949067037615,0.2143398137280296
0.62875,0.62625,0.6829999999999999,0.62,0.7125,0.55375,0.8925,0.8225,0.83825,0.75325,0.78,0.71075,0.4955785173615283,0.4994873643317714,0.5407465256918579,0.5006564551412712,0.49875619025864404,0.4537461832004967,0.44511242206626955,0.21404083434514817
0.62875,0.62625,0.68325,0.62,0.7125,0.55375,0.8925,0.8225,0.838,0.753,0.78,0.7105,0.49561856702310864,0.4995314189595098,0.5407465256918579,0.5007025221687288,0.4988252907773148,0.4548328545415586,0.44623082495106087,0.2150371041120068
0.62875,0.62625,0.6835,0.62,0.7125,0.55375,0.8925,0.8225,0.8377500000000001,0.75275,0.78,0.71025,0.4956345868877408,0.4995514437903,0.5407425207256998,0.5006334216275424,0.49876770698173495,0.45446603952355974,0.4484652697726946,0.21483513843230279
0.62875,0.62625,0.68375,0.62,0.7125,0.55375,0.8925,0.8225,0.8375,0.7525,0.78,0.71,0.49558252232768635,0.4995514437903,0.5406984660979615,0.5006910054118644,0.4987331567223996,0.4551881966776839,0.44651057128138333,0.21513400638304925
0.62875,0.62625,0.68375,0.62,0.7125,0.55375,0.8925,0.8225,0.8375,0.7525,0.78,0.71,0.4955624974968961,0.4995914934518803,0.5406544114702231,0.5006564551412712,0.49864102266748433,0.4551881966776839,0.44651057128138333,0.21513400638304925
0.62875,0.62625,0.68375,0.62,0.7125,0.55375,0.8925,0.8225,0.8375,0.7525,0.78,0.71,0.49555048259842205,0.4995914934518803,0.5406824462333293,0.5006103881138135,0.4986525394130909,0.4569901360825861,0.4476277954256421,0.2151376494541012
0.62875,0.62625,0.68375,0.62,0.7125,0.55375,0.8925,0.8225,0.8375,0.7525,0.78,0.71,0.49557451239537026,0.4995834835195643,0.5406664263686972,0.5006334216275424,0.4986295059218777,0.4598787557638163,0.44846969351657545,0.21593219033454283
0.62875,0.62625,0.68375,0.61975,0.7122499999999999,0.55375,0.89225,0.8220000000000001,0.8372499999999999,0.75225,0.78,0.7095,0.49560655212463456,0.49951539909487763,0.540650406504065,0.5006334216275424,0.4985949556625423,0.46168528789557434,0.4479110814444461,0.2155288300648271
0.62875,0.62625,0.68375,0.6195,0.7120000000000001,0.55375,0.892,0.8215,0.8370000000000001,0.752,0.78,0.7090000000000001,0.49567463654932115,0.49949537426408747,0.5406744363010133,0.5006679718981356,0.4986295059218777,0.4613230656044314,0.4481917152970518,0.21613107516896715
0.62875,0.62625,0.68375,0.61925,0.71175,0.55375,0.8917499999999999,0.821,0.83675,0.7517499999999999,0.78,0.7084999999999999,0.4957186911770596,0.49950338419640355,0.5406904561656454,0.5006910054118644,0.4986986064630642,0.4613230656044314,0.4481917152970518,0.21613107516896715
0.62875,0.62625,0.68375,0.619,0.7115,0.55375,0.8915000000000001,0.8205,0.8365,0.7515000000000001,0.78,0.708,0.4957267011093756,0.4994873643317714,0.5406584164363811,0.5006679718981356,0.4987907405292372,0.4613207692410035,0.44874914516176473,0.2169303709092629
0.62875,0.62625,0.68375,0.61875,0.71125,0.55375,0.89125,0.82,0.83625,0.75125,0.78,0.7075,0.495658616684689,0.49952741399335177,0.5406263767071168,0.5005988713569491,0.4987677069929928,0.4620452182909225,0.44847087225710797,0.21652678207704287
0.62875,0.62625,0.68375,0.61875,0.71125,0.55375,0.89125,0.82,0.83625,0.75125,0.78,0.7075,0.4956786415154792,0.4995674636549321,0.5406704313348553,0.5005067373020339,0.4988137740204504,0.46240514868627053,0.44875002921716417,0.21682847698507937
0.62875,0.626,0.68375,0.6185,0.71125,0.5539999999999999,0.8909999999999999,0.82025,0.83575,0.7509999999999999,0.7797499999999999,0.70625,0.4955905322600024,0.4996155232488286,0.5406824462333293,0.5004606702745763,0.49884832430230147,0.46348264350888685,0.44930952534469293,0.21692403890481537
0.62875,0.62575,0.68375,0.6182500000000001,0.71125,0.55425,0.89075,0.8205,0.83525,0.75075,0.7795000000000001,0.705,0.49552645280147384,0.49963554807961874,0.5407024710641195,0.5004261200039831,0.49884832430230147,0.46348264350888685,0.44930952534469293,0.21692403890481537
0.62875,0.6255,0.68375,0.618,0.71125,0.5545,0.8905,0.82075,0.83475,0.7505,0.77925,0.70375,0.4955785173615283,0.4996555729104089,0.5407425207256998,0.5004606702745763,0.49881377403170823,0.4631158284908881,0.45182519338919863,0.21752349567303036
0.62875,0.62525,0.68375,0.61775,0.71125,0.55475,0.8902500000000001,0.821,0.8342499999999999,0.7502500000000001,0.779,0.7025,0.49555048259842205,0.49965957787656695,0.5407905803195963,0.5005067373020339,0.49882529079983046,0.46672200813175346,0.45154868859534064,0.22031876698225342
0.62875,0.625,0.68375,0.6175,0.71125,0.555,0.89,0.82125,0.83375,0.75,0.77875,0.70125,0.49548640313989345,0.4995914934518803,0.5407184909287517,0.5006103881138135,0.49880225728610167,0.4667082388864521,0.4532265876076608,0.22291065438459898
0.62875,0.625,0.68375,0.6175,0.71125,0.555,0.89,0.82125,0.83375,0.75,0.77875,0.70125,0.49555048259842205,0.49953942889182584,0.5406624214025392,0.5006449383844068,0.49879074054049505,0.4667082388864521,0.4532265876076608,0.22291065438459898
0.62875,0.625,0.68375,0.6175,0.71125,0.555,0.89,0.82125,0.83375,0.75,0.77875,0.70125,0.4955905322600024,0.4994593295686651,0.540650406504065,0.5006564551412712,0.49880225728610167,0.4663391275050253,0.4549033044125645,0.22291461908931354
0.6285000000000001,0.625,0.6835,0.6175,0.71125,0.555,0.89,0.82075,0.83375,0.7497499999999999,0.7785,0.70025,0.4955624974968961,0.4994272898394009,0.5406103568424847,0.5005758378432204,0.49875619025864404,0.4688724095177634,0.4557416628150163,0.22351354338920126
0.62825,0.625,0.68325,0.6175,0.71125,0.555,0.89,0.82025,0.83375,0.7495,0.77825,0.6992499999999999,0.4956466017862149,0.49940726500861066,0.5406183667748008,0.5005182540588984,0.4987792237723728,0.46886552042747953,0.4546241474525083,0.22291119191802325
0.628,0.625,0.6829999999999999,0.6175,0.71125,0.555,0.89,0.81975,0.83375,0.74925,0.778,0.69825,0.49573070607553366,0.499443309704033,0.5406864511994873,0.5004606702745763,0.4988598410816815,0.47283622319054885,0.45546634022857474,0.22681095639018742
0.62775,0.625,0.6827500000000001,0.6175,0.71125,0.555,0.89,0.8192499999999999,0.83375,0.7490000000000001,0.77775,0.6972499999999999,0.49575473587248187,0.4994673395009812,0.5407465256918579,0.5004376367608475,0.4989404583684745,0.47283622319054885,0.45546634022857474,0.22681095639018742
0.6275,0.625,0.6825,0.6175,0.71125,0.555,0.89,0.81875,0.83375,0.74875,0.7775,0.69625,0.4957827706355881,0.49954743882414193,0.540754535624174,0.5003800529765254,0.498963491904719,0.4735514912543892,0.45658415027621596,0.2275083157861118
0.6275,0.625,0.6825,0.6175,0.71125,0.555,0.89,0.81875,0.83375,0.74875,0.7775,0.69625,0.49577476070327203,0.49959549841803835,0.5408146101165445,0.5004146032471186,0.4990556259596342,0.4735514912543892,0.45658415027621596,0.2275083157861118
0.62775,0.625,0.6825,0.61775,0.71125,0.555,0.89,0.8184999999999999,0.8345,0.748,0.7775,0.69575,0.49576274580479796,0.49957146862109014,0.5408146101165445,0.5005182540588984,0.4991132097439563,0.472829334100265,0.454070548494526,0.22841206522401186
0.628,0.625,0.6825,0.618,0.71125,0.555,0.89,0.81825,0.83525,0.74725,0.7775,0.69525,0.4957106812447435,0.49961952821498656,0.5407865753534382,0.5006564551300134,0.4991823102738849,0.4753511387634965,0.45351252925954677,0.22830781539656378
0.62825,0.625,0.6825,0.6182500000000001,0.71125,0.555,0.89,0.818,0.836,0.7465,0.7775,0.69475,0.4957106812447435,0.4996755977411991,0.5408066001842284,0.5007485891961865,0.49925141081507135,0.4724579308230435,0.4551892460644505,0.22950835862796895
0.6285000000000001,0.625,0.6825,0.6185,0.71125,0.555,0.89,0.8177500000000001,0.83675,0.74575,0.7775,0.6942499999999999,0.4956946613801113,0.4996395530457768,0.5407905803195963,0.5008292064942373,0.49929747783127115,0.4742736484085133,0.45379345433040175,0.23020894132502745
0.62875,0.625,0.6825,0.61875,0.71125,0.555,0.89,0.8175,0.8375,0.745,0.7775,0.69375,0.4956866514477953,0.4996235331811446,0.5408025952180704,0.5008522400079661,0.49930899458813555,0.4746358706996563,0.4546324055700038,0.23011123180414295
0.62875,0.625,0.6825,0.61875,0.71125,0.555,0.89,0.8175,0.8375,0.745,0.7775,0.69375,0.49573871600784974,0.4996315431134607,0.5407905803195963,0.5008292064942373,0.499320511345,0.47463357433622827,0.4546315215146044,0.22950721391603604
0.62875,0.625,0.6825,0.61875,0.711,0.55525,0.8897499999999999,0.8177500000000001,0.83675,0.745,0.77725,0.693,0.4957186911770596,0.499663582842725,0.5407505306580159,0.5008061729917663,0.49927444431754237,0.47607558781341547,0.4526759389678937,0.22900665633337483
0.62875,0.625,0.6825,0.61875,0.71075,0.5555,0.8895000000000001,0.818,0.836,0.745,0.777,0.6922499999999999,0.49567463654932115,0.49965957787656695,0.5407024710641195,0.5007370724393221,0.49922837729008473,0.47607558781341547,0.4526759389678937,0.22900665633337483
0.62875,0.625,0.6825,0.61875,0.7105,0.5557500000000001,0.88925,0.81825,0.83525,0.745,0.7767499999999999,0.6915,0.4956706315831631,0.4997076374704634,0.5406704313348553,0.500679488655,0.4992053437763559,0.4746289860770055,0.4537937524824188,0.22910988807631621
0.62875,0.625,0.6825,0.61875,0.71025,0.556,0.889,0.8184999999999999,0.8345,0.745,0.7765000000000001,0.69075,0.49568264648163723,0.49974768713204376,0.5405783171132204,0.5006564551412712,0.4991823102626271,0.4713919133499337,0.4540708431796592,0.22461146142303662
0.62875,0.625,0.6825,0.61875,0.71,0.55625,0.88875,0.81875,0.83375,0.745,0.77625,0.69,0.4956225719892667,0.49977572189514996,0.5405622972485883,0.5005988713569491,0.49910169297583407,0.4713919133499337,0.4540708431796592,0.22461146142303662
0.62875,0.625,0.6825,0.61875,0.71,0.55625,0.88875,0.81875,0.83375,0.745,0.77625,0.69,0.4956265769554247,0.4997556970643598,0.5405462773839561,0.500564321086356,0.4990325924459054,0.47211865876328063,0.4557449078183647,0.223607093832272
0.62875,0.625,0.6825,0.61875,0.71,0.55625,0.88875,0.81875,0.83375,0.745,0.77625,0.69,0.4956105570907926,0.4997637069966759,0.5405542873162722,0.5004952205451695,0.49889439136353253,0.47175872836793253,0.45518600106110213,0.2224103747491383
0.629,0.625,0.6827500000000001,0.619,0.71025,0.5565,0.88875,0.8190000000000001,0.83375,0.745,0.77625,0.69,0.4955945372261604,0.4997236573350955,0.5405823220793784,0.5005067373020339,0.4987561902699018,0.46887929414041407,0.4537881465311215,0.22141369914137868
0.62925,0.625,0.6829999999999999,0.61925,0.7105,0.55675,0.88875,0.8192499999999999,0.83375,0.745,0.77625,0.69,0.4955785173615283,0.49968360767351516,0.5406103568424847,0.5005182540588984,0.49861798917627115,0.46887929414041407,0.4537881465311215,0.22141369914137868
0.6295000000000001,0.625,0.68325,0.6195,0.71075,0.557,0.88875,0.8195,0.83375,0.745,0.77625,0.69,0.49556650246305417,0.4996876126396732,0.5406063518763267,0.5005412875726272,0.4986295059218777,0.4688701086867023,0.45462562087817393,0.22030922117372875
0.62975,0.625,0.6835,0.61975,0.711,0.55725,0.88875,0.81975,0.83375,0.745,0.77625,0.69,0.4956145620569506,0.49965156794425086,0.5406544114702231,0.500564321086356,0.49856040535817564,0.4645578419680752,0.45601934634940683,0.21710822482760558
0.63,0.625,0.68375,0.62,0.71125,0.5575,0.88875,0.82,0.83375,0.745,0.77625,0.69,0.49567463654932115,0.4996395530457768,0.5406343866394329,0.500621904870678,0.49857192210378226,0.46563762868648645,0.45490300972743136,0.21650442220612315
0.63,0.625,0.68375,0.62,0.71125,0.5575,0.88875,0.82,0.83375,0.745,0.77625,0.69,0.4956946613801113,0.4996555729104089,0.540646401537907,0.500679488655,0.4985949556400267,0.4660044437044852,0.4549033044125645,0.21680486793460008
0.63,0.625,0.68375,0.62,0.71125,0.5575,0.88875,0.82,0.83375,0.745,0.77625,0.69,0.4957507309063238,0.4996435580119348,0.5406343866394329,0.5006679718981356,0.4985834388944201,0.4660044437044852,0.4549033044125645,0.21680486793460008
0.63,0.625,0.68375,0.62,0.71125,0.5575,0.88875,0.82,0.83375,0.745,0.77625,0.69,0.4957587408386399,0.4996435580119348,0.5405943369778525,0.5006334216275424,0.4984106875301962,0.4681594333497179,0.4557413681298832,0.21770580181167848
0.63,0.62525,0.6835,0.62,0.7115,0.55775,0.88875,0.82,0.83375,0.7445,0.7759999999999999,0.6892499999999999,0.4957507309063238,0.4996876126396732,0.5405703071809043,0.5005873546000847,0.4984337210664406,0.46635978584061055,0.4546241474525083,0.2177002112108114
0.63,0.6255,0.68325,0.62,0.71175,0.5579999999999999,0.88875,0.82,0.83375,0.7440000000000001,0.77575,0.6884999999999999,0.4957467259401658,0.4996555729104089,0.5406063518763267,0.5005528043294916,0.49841068757522744,0.468517067381638,0.4543464639181178,0.21760227755938247
0.63,0.62575,0.6829999999999999,0.62,0.7120000000000001,0.55825,0.88875,0.82,0.83375,0.7434999999999999,0.7755,0.6877500000000001,0.49575473587248187,0.49961952821498656,0.5405943369778525,0.5004491535177119,0.4984337210664406,0.46635978584061055,0.4546267996187065,0.2183000719205159
0.63,0.626,0.6827500000000001,0.62,0.7122499999999999,0.5585,0.88875,0.82,0.83375,0.743,0.7752500000000001,0.687,0.49576274580479796,0.499663582842725,0.5406143618086428,0.5003915697333898,0.49850282160762704,0.46671283161330795,0.45434705328838404,0.21899776814539404
0.63,0.62625,0.6825,0.62,0.7125,0.55875,0.88875,0.82,0.83375,0.7425,0.775,0.68625,0.4957827706355881,0.499663582842725,0.5406744363010133,0.5003915697333898,0.49868708971745757,0.4681571369862899,0.4535095789413316,0.21990193418752635
0.63,0.62625,0.6825,0.62,0.7125,0.55875,0.88875,0.82,0.83375,0.7425,0.775,0.68625,0.4957987905002203,0.49968360767351516,0.5407385157595418,0.5003224691922034,0.49882529078857263,0.46816172971314574,0.4540690750688604,0.21939616082117963
0.63,0.62625,0.6825,0.62,0.7125,0.55875,0.88875,0.82,0.83375,0.7425,0.775,0.68625,0.4957787656694301,0.499663582842725,0.5407305058272258,0.5002764021647458,0.49885984104790804,0.4706927108948228,0.4582617546034029,0.22129474280465086
0.63,0.62625,0.6825,0.62,0.7125,0.55875,0.88875,0.82,0.83375,0.7425,0.775,0.68625,0.4957827706355881,0.4996796027073571,0.5407465256918579,0.5002764021647458,0.49887135781603026,0.4706927108948228,0.4582617546034029,0.22129474280465086
0.63,0.62625,0.6825,0.62,0.7122499999999999,0.5585,0.88875,0.82,0.8342499999999999,0.74275,0.775,0.6857500000000001,0.49571468621090153,0.4996876126396732,0.5407425207256998,0.5003339859490679,0.4989289416116101,0.4728545851627062,0.4565859218538986,0.2202883029560564
0.63,0.62625,0.6825,0.62,0.7120000000000001,0.55825,0.88875,0.82,0.83475,0.743,0.775,0.68525,0.4957427209740078,0.4996155232488286,0.5406944611318034,0.5002879189216102,0.49899804216405436,0.4746588209310363,0.4577037319015398,0.22068959160107932
0.63,0.62625,0.6825,0.62,0.71175,0.5579999999999999,0.88875,0.82,0.83525,0.7432500000000001,0.775,0.68475,0.49572269614321757,0.4995834835195643,0.5406023469101686,0.5002879189216102,0.4990095589209188,0.47393896014034004,0.4577037319015398,0.22039009051320194
0.63,0.62625,0.6825,0.62,0.7115,0.55775,0.88875,0.82,0.83575,0.7434999999999999,0.775,0.68425,0.4957267011093756,0.49956345868877405,0.5406063518763267,0.5003339859490679,0.4990901762189696,0.4714194563081697,0.4574236908860842,0.21988680221009455
0.63,0.62625,0.6825,0.62,0.71125,0.5575,0.88875,0.82,0.83625,0.74375,0.775,0.68375,0.4957467259401658,0.49957146862109014,0.5405983419440106,0.5003224691922034,0.49914776001454947,0.47394355286719597,0.456586805909298,0.2211928735728154
0.63,0.62625,0.6825,0.62,0.71125,0.5575,0.88875,0.82,0.83625,0.74375,0.775,0.68375,0.49579478553406225,0.4995194040610357,0.5405983419440106,0.5003339859490679,0.49913624324642725,0.47322139571307187,0.45854120624859224,0.2203909205559807
0.63,0.62625,0.6825,0.62,0.71125,0.5575,0.88875,0.82,0.83625,0.74375,0.775,0.68375,0.49578677560174617,0.4996235331811446,0.5405983419440106,0.5003570194627966,0.49911320973269846,0.4725038312858036,0.45518983543471675,0.22039736082687764
0.62975,0.62625,0.6825,0.62,0.71125,0.5575,0.88875,0.81975,0.83625,0.7434999999999999,0.775,0.68375,0.4957907805679042,0.49961952821498656,0.5406023469101686,0.5004146032471186,0.4990901762189696,0.47575238136238196,0.456307943634375,0.21989335581253794
0.6295000000000001,0.62625,0.6825,0.62,0.71125,0.5575,0.88875,0.8195,0.83625,0.7432500000000001,0.775,0.68375,0.49579478553406225,0.4996395530457768,0.5406183667748008,0.5003455027059323,0.4991592767601561,0.4714194563081697,0.45574903687711243,0.2196885448145671
0.62925,0.62625,0.6825,0.62,0.71125,0.5575,0.88875,0.8192499999999999,0.83625,0.743,0.775,0.68375,0.4957507309063238,0.49963554807961874,0.5406143618086428,0.5003339859490679,0.49930899458813555,0.47539015460360595,0.45574933156224556,0.21979074517712202
0.629,0.62625,0.6825,0.62,0.71125,0.5575,0.88875,0.8190000000000001,0.83625,0.74275,0.775,0.68375,0.49573070607553366,0.49965156794425086,0.5406544114702231,0.5002994356784746,0.49949326269796607,0.47899633871210445,0.4546347630510688,0.22359440639730316
0.62875,0.62625,0.6825,0.62,0.71125,0.5575,0.88875,0.81875,0.83625,0.7425,0.775,0.68375,0.4957026713124274,0.4995995033841964,0.5406704313348553,0.5002648854078814,0.4995969135097457,0.47792113578528295,0.4518414149390565,0.22339802878591772
0.62875,0.62625,0.6825,0.62,0.71125,0.5575,0.88875,0.81875,0.83625,0.7425,0.775,0.68375,0.4956786415154792,0.4995874884857223,0.5406984660979615,0.5001842681098305,0.499689047564661,0.47863870021255117,0.45184259367958907,0.2229854943591733
0.62875,0.62625,0.6825,0.62,0.71125,0.5575,0.88875,0.81875,0.83625,0.7425,0.775,0.68375,0.49566262165084707,0.4995834835195643,0.5406744363010133,0.5002188183804237,0.49975814810584746,0.47863870021255117,0.45184259367958907,0.2229854943591733
0.62875,0.62625,0.6825,0.62,0.71125,0.5575,0.8885,0.8190000000000001,0.8365,0.7425,0.7747499999999999,0.6835,0.49569866634626936,0.4996235331811446,0.5406784412671712,0.5002994356784746,0.4998157318901695,0.4761054226674462,0.4510045299622703,0.22519834155528057
0.62875,0.62625,0.6825,0.62,0.71125,0.5575,0.88825,0.8192499999999999,0.83675,0.7425,0.7745000000000001,0.68325,0.49570667627858545,0.4995995033841964,0.5406744363010133,0.500310952435339,0.49989634918822035,0.47899863060789927,0.4484897494400479,0.22399849667413094
0.62875,0.62625,0.6825,0.62,0.71125,0.5575,0.888,0.8195,0.8370000000000001,0.7425,0.77425,0.6829999999999999,0.4956946613801113,0.4996395530457768,0.5406784412671712,0.5004030864902542,0.5000230335137288,0.47899863060789927,0.4484897494400479,0.22399849667413094
0.62875,0.62625,0.6825,0.62,0.71125,0.5575,0.88775,0.81975,0.8372499999999999,0.7425,0.774,0.6827500000000001,0.49568264648163723,0.4996796027073571,0.5406824462333293,0.5004952205451695,0.5001497178392373,0.4782718851945524,0.44904835804529336,0.222298205009318
0.62875,0.62625,0.6825,0.62,0.71125,0.5575,0.8875,0.82,0.8375,0.7425,0.77375,0.6825,0.4956345868877408,0.49967159277504103,0.5406744363010133,0.5005412875726272,0.5002418518941526,0.48008759831238906,0.4482097049577084,0.22270259286059743
0.62875,0.62625,0.6825,0.62,0.71125,0.5575,0.8875,0.82,0.8375,0.7425,0.77375,0.6825,0.49556650246305417,0.4996155232488286,0.5406704313348553,0.5005412875726272,0.5002879189216102,0.47682987171736513,0.4487680223447047,0.22190292926762853
0.62875,0.62625,0.6825,0.62,0.71125,0.5575,0.8875,0.82,0.8375,0.7425,0.77375,0.6825,0.495546477632264,0.49965957787656695,0.5406664263686972,0.5005873546000847,0.5002648854078814,0.47647683041230093,0.4484870938069658,0.22280998621390113
0.62875,0.62625,0.6825,0.62,0.71125,0.5575,0.8875,0.82,0.8375,0.7425,0.77375,0.6825,0.49555048259842205,0.49961952821498656,0.5406664263686972,0.5005528043294916,0.5001842681098305,0.4754039238489074,0.44820645995436004,0.22030676333538604
0.62875,0.62625,0.6825,0.61975,0.71125,0.55725,0.88725,0.81975,0.8372499999999999,0.7425,0.77375,0.68325,0.49555048259842205,0.4996435580119348,0.5406664263686972,0.5004952205451695,0.5000806172980509,0.470734018630727,0.4479190448768084,0.21201847025373632
0.62875,0.62625,0.6825,0.6195,0.71125,0.557,0.887,0.8195,0.8370000000000001,0.7425,0.77375,0.684,0.49559854219231847,0.49971564740277946,0.5406864511994873,0.5004376367608475,0.5000230335137288,0.470734018630727,0.4479190448768084,0.21201847025373632
0.62875,0.62625,0.6825,0.61925,0.71125,0.55675,0.8867499999999999,0.8192499999999999,0.83675,0.7425,0.77375,0.68475,0.49563859185389886,0.49978373182746605,0.540646401537907,0.5003800529765254,0.49990786594508474,0.46640109357651477,0.4468003473068839,0.2108206001272984
0.62875,0.62625,0.6825,0.619,0.71125,0.5565,0.8865000000000001,0.8190000000000001,0.8365,0.7425,0.77375,0.6855,0.49567463654932115,0.4998117665905723,0.5405983419440106,0.5003339859490679,0.49988483243135595,0.46856985246704885,0.44847529600098884,0.21072339141788454
0.62875,0.626,0.6825,0.61875,0.711,0.556,0.8859999999999999,0.8190000000000001,0.83675,0.7425,0.774,0.687,0.4956706315831631,0.49979174175978214,0.5405943369778525,0.5002994356784746,0.4998042151333051,0.4685652642078261,0.4484747066307226,0.2101231141039478
0.62875,0.62575,0.6825,0.61875,0.71075,0.5557500000000001,0.88575,0.8192499999999999,0.8372499999999999,0.7425,0.77425,0.6877500000000001,0.49572269614321757,0.4997076374704634,0.5406103568424847,0.5003570194627966,0.4997926983764407,0.4656812372534517,0.4467985791960851,0.20912424657544054
0.62875,0.6255,0.6825,0.61875,0.7105,0.5555,0.8855,0.8195,0.8377500000000001,0.7425,0.7745000000000001,0.6884999999999999,0.49569866634626936,0.49965957787656695,0.5405863270455364,0.5003339859490679,0.4997926983764407,0.4656812372534517,0.4467985791960851,0.20912424657544054
0.62875,0.62525,0.6825,0.61875,0.71025,0.55525,0.8852500000000001,0.81975,0.83825,0.7425,0.7747499999999999,0.6892499999999999,0.4956345868877408,0.4995874884857223,0.5406784412671712,0.5003570194627966,0.4998733156744915,0.46640797819916546,0.44819407277811685,0.2086234648622349
0.62875,0.625,0.6825,0.61875,0.71,0.555,0.885,0.82,0.83875,0.7425,0.775,0.69,0.4955384676999479,0.49951539909487763,0.5407465256918579,0.5003570194627966,0.49988483243135595,0.46567205626737307,0.4473563037459312,0.20842146309371454
0.62875,0.625,0.6825,0.61875,0.71,0.555,0.885,0.82,0.83875,0.7425,0.775,0.69,0.49555849253073814,0.49956345868877405,0.5407184909287517,0.5003915697333898,0.4999308994588136,0.4682030374490501,0.4470762627304756,0.2101313075315606
0.62875,0.625,0.6825,0.61875,0.71,0.555,0.885,0.82,0.83875,0.7425,0.775,0.69,0.4954984180383676,0.49960350835035444,0.5407184909287517,0.5003800529765254,0.49995393297254237,0.46710488875848155,0.44763605354313757,0.21053219413450525
0.6285000000000001,0.625,0.6822499999999999,0.61875,0.71,0.555,0.8847499999999999,0.82025,0.83825,0.74275,0.775,0.691,0.4954823981737354,0.49957947855340623,0.5406904561656454,0.5004491535177119,0.49990786594508474,0.4678316341718285,0.4470774414710082,0.2110291377704225
0.62825,0.625,0.682,0.61875,0.71,0.555,0.8845000000000001,0.8205,0.8377500000000001,0.743,0.775,0.6920000000000001,0.4954783932075774,0.49965156794425086,0.5406223717409588,0.5004376367608475,0.4998502821607627,0.4678316341718285,0.4470774414710082,0.2110291377704225
0.628,0.625,0.68175,0.61875,0.71,0.555,0.88425,0.82075,0.8372499999999999,0.7432500000000001,0.775,0.693,0.4954583683767872,0.4996996275381473,0.5405622972485883,0.5004606702745763,0.4997235978352542,0.4663804397085627,0.4470774414710082,0.21183076915359464
0.62775,0.625,0.6815000000000001,0.61875,0.71,0.555,0.884,0.821,0.83675,0.7434999999999999,0.775,0.6940000000000001,0.49543834354599703,0.4997236573350955,0.540646401537907,0.5004030864902542,0.4996775308077966,0.46963357804436373,0.44595933327134996,0.2112309084438901
0.6275,0.625,0.68125,0.61875,0.71,0.555,0.88375,0.82125,0.83625,0.74375,0.775,0.695,0.4954423485121551,0.49974768713204376,0.5406263767071168,0.500368536219661,0.49961994702347456,0.46709570777240295,0.4454010193512376,0.21264062182241333
0.6275,0.625,0.68125,0.61875,0.71,0.555,0.88375,0.82125,0.83625,0.74375,0.775,0.695,0.49547038327526133,0.4998197765228884,0.5406864511994873,0.5003455027059323,0.4994817459411017,0.4681823835810979,0.44623908306855636,0.21243426533670562
0.6275,0.625,0.68125,0.61875,0.71,0.555,0.88375,0.82125,0.83625,0.74375,0.775,0.695,0.495546477632264,0.4998117665905723,0.5407104809964356,0.500368536219661,0.49943567891364404,0.46890453626758893,0.4454010193512376,0.21313892796943656
0.6275,0.62475,0.68125,0.61875,0.71,0.555,0.884,0.82125,0.8365,0.7440000000000001,0.7747499999999999,0.695,0.4956345868877408,0.4997677119628339,0.5407465256918579,0.5003570194627966,0.49942416215677965,0.4688976516449382,0.44344602617479323,0.2134380270152358
0.6275,0.6245,0.68125,0.61875,0.71,0.555,0.88425,0.82125,0.83675,0.74425,0.7745000000000001,0.695,0.49561856702310864,0.49967159277504103,0.5407184909287517,0.5004837037883051,0.49943567891364404,0.4678178649265271,0.44344632085992636,0.2132360094182871
0.6275,0.62425,0.68125,0.61875,0.71,0.555,0.8845000000000001,0.82125,0.8370000000000001,0.7445,0.77425,0.695,0.4956105570907926,0.4996435580119348,0.5407064760302775,0.5005528043294916,0.49943567891364404,0.47069959551747353,0.4448429966493745,0.21724717943375438
0.6275,0.624,0.68125,0.61875,0.71,0.555,0.8847499999999999,0.82125,0.8372499999999999,0.7447499999999999,0.774,0.695,0.4955945372261604,0.4996475629780928,0.5407144859625936,0.500564321086356,0.49956236323915254,0.4750141585995285,0.44400699919487163,0.21895008152295856
0.6275,0.62375,0.68125,0.61875,0.71,0.555,0.885,0.82125,0.8375,0.745,0.77375,0.695,0.49555849253073814,0.49965957787656695,0.5406864511994873,0.5005067373020339,0.4995853967528813,0.4750141585995285,0.44400699919487163,0.21895008152295856
0.6275,0.62375,0.68125,0.61875,0.71,0.555,0.885,0.82125,0.8375,0.745,0.77375,0.695,0.49552645280147384,0.4997316672674116,0.5406383916055909,0.5004491535177119,0.49964298053720335,0.47428741765381466,0.44624144054962134,0.21844909150763683
0.6275,0.62375,0.68125,0.6185,0.70975,0.555,0.885,0.821,0.8372499999999999,0.7452500000000001,0.774,0.69575,0.49548640313989345,0.4997877367936241,0.5406223717409588,0.5002994356784746,0.49963146378033896,0.4739297836218946,0.44735837000874706,0.2175476409906596
0.6275,0.62375,0.68125,0.6182500000000001,0.7095,0.555,0.885,0.82075,0.8370000000000001,0.7454999999999999,0.77425,0.6965,0.49547038327526133,0.49983179142136247,0.540646401537907,0.500253368651017,0.49963146378033896,0.46780409568122566,0.45126658131706926,0.21384970480744192
0.6275,0.62375,0.68125,0.618,0.7092499999999999,0.555,0.885,0.8205,0.83675,0.74575,0.7745000000000001,0.6972499999999999,0.4954663783091033,0.4998037566582562,0.5406143618086428,0.5002303351372881,0.49964298053720335,0.4685239520042887,0.4501487712694281,0.21475001061248628
0.6275,0.62375,0.68125,0.61775,0.7090000000000001,0.555,0.885,0.82025,0.8365,0.746,0.7747499999999999,0.698,0.49552645280147384,0.49978373182746605,0.5406223717409588,0.500253368651017,0.4996775308077966,0.4703327804994747,0.4507073798746736,0.21414806941416914
0.6275,0.62375,0.68125,0.6175,0.70875,0.555,0.885,0.82,0.83625,0.74625,0.775,0.69875,0.49554247266610596,0.499779726861308,0.5406624214025392,0.5002648854078814,0.4997235978352542,0.46925299378106355,0.45210435034925484,0.21394981708373875
0.6275,0.62375,0.6809999999999999,0.6175,0.70875,0.55475,0.885,0.8205,0.83625,0.7465,0.7752500000000001,0.70025,0.4956225719892667,0.4997957467259402,0.5406624214025392,0.5002994356784746,0.4998617989176271,0.4692461091584128,0.4523852788869937,0.2157496043492828
0.6275,0.62375,0.6807500000000001,0.6175,0.70875,0.5545,0.885,0.821,0.83625,0.74675,0.7755,0.70175,0.495658616684689,0.49974768713204376,0.540642396571749,0.5002418518941526,0.5000460670274576,0.47177020571743916,0.4512686475798851,0.2156510578211111
0.6275,0.62375,0.6805,0.6175,0.70875,0.55425,0.885,0.8215,0.83625,0.747,0.77575,0.70325,0.49567463654932115,0.4997316672674116,0.5406303816732748,0.5002418518941526,0.5001727513529661,0.4714171599447417,0.4526635517916505,0.2155564095182551
0.6275,0.62375,0.68025,0.6175,0.70875,0.5539999999999999,0.885,0.8220000000000001,0.83625,0.74725,0.7759999999999999,0.70475,0.4956345868877408,0.49970363250430533,0.5406544114702231,0.5001382010823728,0.5003339859490679,0.4714171599447417,0.4526635517916505,0.2155564095182551
0.6275,0.62375,0.68,0.6175,0.70875,0.55375,0.885,0.8225,0.83625,0.7475,0.77625,0.70625,0.4956025471584765,0.4996796027073571,0.5406143618086428,0.5000691005411865,0.5003339859490679,0.47285917342192896,0.4532215744935137,0.21525784990529157
0.6275,0.62375,0.68,0.6175,0.70875,0.55375,0.885,0.8225,0.83625,0.7475,0.77625,0.70625,0.4955905322600024,0.4996796027073571,0.5406223717409588,0.5,0.5002994356784746,0.46925299378106355,0.4521037609789886,0.21546034615391133
0.6275,0.62375,0.68,0.6175,0.70875,0.5539999999999999,0.885,0.8227500000000001,0.8365,0.748,0.7767499999999999,0.7077500000000001,0.49559854219231847,0.4996796027073571,0.5406023469101686,0.499942416215678,0.5002418518941526,0.47033507686290266,0.449588387619616,0.21526299857644116
0.6275,0.62375,0.68,0.6175,0.70875,0.55425,0.885,0.823,0.83675,0.7484999999999999,0.77725,0.7092499999999999,0.49563058192158277,0.499663582842725,0.5405863270455364,0.4998733156744915,0.5001612345961017,0.47033507686290266,0.449588387619616,0.21526299857644116
0.6275,0.62375,0.68,0.6175,0.70875,0.5545,0.885,0.82325,0.8370000000000001,0.7490000000000001,0.77775,0.71075,0.4956225719892667,0.49967159277504103,0.5406263767071168,0.5000115167568644,0.5000921340549153,0.46997744283098253,0.4476325138546561,0.2142640335448157
0.6275,0.62375,0.68,0.6175,0.70875,0.55475,0.885,0.8234999999999999,0.8372499999999999,0.7495,0.77825,0.7122499999999999,0.4956666266170051,0.499663582842725,0.540642396571749,0.5000575837843221,0.500253368651017,0.46708423489052947,0.44595520421260226,0.2155706126835157
0.6275,0.62375,0.68,0.6175,0.70875,0.555,0.885,0.82375,0.8375,0.75,0.77875,0.71375,0.4956105570907926,0.49971564740277946,0.5406584164363811,0.5000806172980509,0.5004146032471186,0.46708423489052947,0.44595520421260226,0.2155706126835157
0.6275,0.62375,0.68,0.6175,0.70875,0.555,0.885,0.82375,0.8375,0.75,0.77875,0.71375,0.4955865272938444,0.4997236573350955,0.5407144859625936,0.5001612345961017,0.5006103881138135,0.4674510499085283,0.44679415545220424,0.21456819958707463
0.6275,0.62375,0.68,0.6175,0.70875,0.555,0.885,0.82375,0.8375,0.75,0.77875,0.71375,0.495546477632264,0.4997236573350955,0.5407224958949097,0.5002188183804237,0.5009098237922882,0.46889306338571546,0.44539747966275617,0.21416867486209876
0.62725,0.6235,0.67975,0.6175,0.70875,0.55475,0.8855,0.82325,0.8375,0.7509999999999999,0.77925,0.71525,0.49554247266610596,0.499779726861308,0.5407024710641195,0.5001497178392373,0.501186225957034,0.47032819224025196,0.44763074227697347,0.21808083489301436
0.627,0.6232500000000001,0.6795,0.6175,0.70875,0.5545,0.8859999999999999,0.8227500000000001,0.8375,0.752,0.7797499999999999,0.71675,0.4955224478353158,0.49983179142136247,0.5407385157595418,0.5001497178392373,0.5013820108237289,0.4735698532265465,0.4465135215995985,0.21858452713761134
0.6267499999999999,0.623,0.67925,0.6175,0.70875,0.55425,0.8865000000000001,0.8222499999999999,0.8375,0.753,0.7802500000000001,0.71825,0.49555849253073814,0.4998037566582562,0.5406984660979615,0.5001382010823728,0.5015893124472882,0.47249235840393017,0.446233477117259,0.21728498911694566
0.6265,0.62275,0.679,0.6175,0.70875,0.5539999999999999,0.887,0.82175,0.8375,0.754,0.78075,0.7197499999999999,0.4955544875645801,0.49981577155673035,0.5406984660979615,0.5000115167568644,0.5017850973027254,0.4757386121170805,0.44427819272256547,0.21788838779693848
0.62625,0.6225,0.67875,0.6175,0.70875,0.55375,0.8875,0.82125,0.8375,0.755,0.78125,0.72125,0.4955024230045256,0.4998277864552044,0.5406544114702231,0.49996544972940676,0.501877231335125,0.4721232470225034,0.4434389502647142,0.21789781647509388
0.62625,0.6225,0.67875,0.6175,0.70875,0.55375,0.8875,0.82125,0.8375,0.755,0.78125,0.72125,0.49543834354599703,0.49977572189514996,0.5406263767071168,0.5000115167568644,0.5019463318763114,0.4775497325080613,0.44483267573594704,0.21620187572864544
0.6265,0.6225,0.679,0.61725,0.70875,0.5535,0.88775,0.82175,0.838,0.75625,0.78175,0.7240000000000001,0.49538627898594256,0.4997116424366214,0.5405943369778525,0.5000691005411865,0.5020269491631044,0.4779004819173308,0.44511153801087017,0.21570222543149298
0.6267499999999999,0.6225,0.67925,0.617,0.70875,0.55325,0.888,0.8222499999999999,0.8384999999999999,0.7575,0.7822499999999999,0.72675,0.495322199527414,0.4997196523689375,0.5405863270455364,0.5001612345961017,0.5020960497268065,0.4760962461490007,0.44538922154526067,0.21541037010760997
0.627,0.6225,0.6795,0.61675,0.70875,0.5529999999999999,0.88825,0.8227500000000001,0.8390000000000001,0.75875,0.7827500000000001,0.7295,0.4952541151027274,0.4997236573350955,0.5406023469101686,0.5003915697333898,0.5021421167542641,0.4753717970990818,0.4428747357081714,0.2135074530342026
0.62725,0.6225,0.67975,0.6164999999999999,0.70875,0.55275,0.8885,0.82325,0.8395,0.76,0.78325,0.73225,0.4952220753734631,0.4997196523689375,0.5406544114702231,0.5004721870314407,0.5022227340635728,0.4757363157536526,0.44203490041316995,0.21421270828328814
0.6275,0.6225,0.68,0.61625,0.70875,0.5525,0.88875,0.82375,0.84,0.76125,0.78375,0.735,0.49523008530577917,0.49975970203051784,0.5406584164363811,0.5005182540588984,0.5022342508091794,0.47175872836793253,0.4395177589429986,0.21221859540380036
0.6275,0.6225,0.68,0.61625,0.70875,0.5525,0.88875,0.82375,0.84,0.76125,0.78375,0.735,0.49523008530577917,0.4998037566582562,0.5406704313348553,0.500564321086356,0.5021881837817217,0.47175872836793253,0.4395177589429986,0.21221859540380036
0.6275,0.6225,0.68,0.61625,0.70875,0.5525,0.88875,0.82375,0.84,0.76125,0.78375,0.735,0.4952340902719372,0.4997997516920982,0.540646401537907,0.500679488655,0.5021651502454773,0.4692438127949849,0.4392386019829424,0.21221522964681178
0.62775,0.623,0.68025,0.6164999999999999,0.7092499999999999,0.55275,0.88925,0.8242499999999999,0.84125,0.763,0.784,0.737,0.49519804557651487,0.4997637069966759,0.5406183667748008,0.5006679718981356,0.502073016190562,0.4692438127949849,0.4392386019829424,0.21221522964681178
0.628,0.6235,0.6805,0.61675,0.70975,0.5529999999999999,0.8897499999999999,0.82475,0.8425,0.7647499999999999,0.78425,0.7390000000000001,0.49521807040730503,0.49977171692899197,0.5406383916055909,0.5007255556824577,0.5019348151081892,0.47140568259523513,0.43895826281546974,0.2112227137500031
0.62825,0.624,0.6807500000000001,0.617,0.71025,0.55325,0.8902500000000001,0.82525,0.84375,0.7665000000000001,0.7845,0.741,0.49518202571188275,0.4997316672674116,0.5406143618086428,0.5007716227099153,0.5018541978213962,0.47285917342192896,0.4397954424773891,0.21102475836088716
0.6285000000000001,0.6245,0.6809999999999999,0.61725,0.71075,0.5535,0.89075,0.82575,0.845,0.76825,0.78475,0.743,0.4951339661179863,0.4997436821658857,0.5405983419440106,0.5007601059530509,0.5018311643301829,0.47248777014470733,0.4381181363022192,0.21012475392911714
0.62875,0.625,0.68125,0.6175,0.71125,0.55375,0.89125,0.82625,0.84625,0.77,0.785,0.745,0.4951099363210381,0.49972766230125354,0.5406824462333293,0.5007255556824577,0.5018081307939385,0.47321451109042123,0.43895413375672204,0.20913243303854484
0.62875,0.625,0.68125,0.6175,0.71125,0.55375,0.89125,0.82625,0.84625,0.77,0.785,0.745,0.49509391645640594,0.49975169209820175,0.5406664263686972,0.500679488655,0.5017505470208743,0.4717931559488192,0.43196456988856957,0.20174308388397058
0.62875,0.625,0.68125,0.6175,0.71125,0.55375,0.89125,0.82625,0.84625,0.77,0.785,0.745,0.4950658816932997,0.4997436821658857,0.540646401537907,0.5007025221687288,0.5017044799934166,0.4717931559488192,0.43196456988856957,0.20174308388397058
0.62875,0.625,0.68125,0.6175,0.71125,0.55375,0.89125,0.82625,0.84625,0.77,0.785,0.745,0.49502583203171935,0.49972766230125354,0.5406063518763267,0.500679488655,0.5015662789110438,0.472884420016737,0.43196338768115317,0.2013460416896856
0.62875,0.625,0.68125,0.6175,0.71125,0.55375,0.89125,0.82625,0.84625,0.77,0.785,0.745,0.4950378469301934,0.4997196523689375,0.5405582922824302,0.500621904870678,0.5012438097075825,0.4732512305671026,0.4314035968684912,0.19914422310926377
0.62875,0.625,0.68125,0.6175,0.71125,0.5539999999999999,0.8915000000000001,0.82575,0.847,0.7715000000000001,0.7857500000000001,0.7465,0.49499379230245505,0.4997076374704634,0.5404982177900597,0.5003800529765254,0.5007370724280642,0.4718000405714699,0.4316821679251651,0.19804243027618654
0.62875,0.625,0.68125,0.6175,0.71125,0.55425,0.8917499999999999,0.82525,0.84775,0.773,0.7865000000000001,0.748,0.4949737674716649,0.4996475629780928,0.5404581681284794,0.5002073016235593,0.5002073016123015,0.4710778834173458,0.43028460808031754,0.19824982067482924
0.62875,0.625,0.68125,0.6175,0.71125,0.5545,0.892,0.82475,0.8484999999999999,0.7745000000000001,0.7872499999999999,0.7495,0.4948976731146622,0.49965156794425086,0.5404020986022668,0.49991938270194913,0.4995623632278947,0.47108476803999644,0.4319592586224055,0.19595195899045192
0.62875,0.625,0.68125,0.6175,0.71125,0.55475,0.89225,0.8242499999999999,0.84925,0.7759999999999999,0.7879999999999999,0.7509999999999999,0.4948656333853979,0.49965957787656695,0.5403940886699508,0.4996660140509322,0.4989980421302809,0.4674785883991311,0.43084056451936487,0.1929492080102506
0.62875,0.625,0.68125,0.6175,0.71125,0.555,0.8925,0.82375,0.85,0.7775,0.78875,0.7525,0.494769514197605,0.4995754735872482,0.540426128399215,0.4995393297254237,0.49852585507632463,0.4678431070537019,0.4311185427388885,0.1927484528887412
0.62875,0.625,0.68125,0.6175,0.71125,0.555,0.8925,0.82375,0.85,0.7775,0.78875,0.7525,0.4947935439945532,0.4995514437903,0.5404461532300052,0.49964298053720335,0.49814580208854137,0.47037409270301206,0.43055934129649287,0.1917479455350646
0.62875,0.625,0.68125,0.6175,0.71125,0.555,0.8925,0.82375,0.85,0.7775,0.78875,0.7525,0.4948576234530818,0.49957947855340623,0.5404541631623213,0.4996775308077966,0.4977196820733005,0.46784999167635266,0.43027900212902026,0.1929501349230105
0.6285000000000001,0.62475,0.6815000000000001,0.61725,0.711,0.55475,0.89325,0.8234999999999999,0.85075,0.77775,0.78875,0.75275,0.49491369297929433,0.4995834835195643,0.5404821979254275,0.4998617989176271,0.4974202464173415,0.46495908009932757,0.43307264839304965,0.19174603725975167
0.62825,0.6245,0.68175,0.617,0.71075,0.5545,0.894,0.82325,0.8515,0.778,0.78875,0.753,0.4949577476070327,0.4996155232488286,0.5405582922824302,0.5000460670274576,0.49712081076138254,0.46495449184010484,0.43111794990173835,0.1923516215291208
0.628,0.62425,0.682,0.61675,0.7105,0.55425,0.8947499999999999,0.823,0.85225,0.77825,0.78875,0.75325,0.4950658816932997,0.4996755977411991,0.5405983419440106,0.5002418518941526,0.4968674421328812,0.46279261757222145,0.4308384982565491,0.1931496231371207
0.62775,0.624,0.6822499999999999,0.6164999999999999,0.71025,0.5539999999999999,0.8955,0.8227500000000001,0.853,0.7785,0.78875,0.7535,0.4951299611518283,0.4996796027073571,0.5406023469101686,0.5002764021647458,0.4967983416142104,0.4660342785585159,0.43139740501381163,0.19454666427596612
0.6275,0.62375,0.6825,0.61625,0.71,0.55375,0.89625,0.8225,0.85375,0.77875,0.78875,0.75375,0.49511794625335415,0.49975970203051784,0.5407104809964356,0.500368536219661,0.4969595762328277,0.4660090364313411,0.4327996832876731,0.20074925422761505
0.6275,0.62375,0.6825,0.61625,0.71,0.55375,0.89625,0.8225,0.85375,0.77875,0.78875,0.75375,0.4951860306780408,0.49977572189514996,0.5408386399134928,0.5003224691922034,0.4973050789162443,0.4703235995133961,0.43420195809465073,0.20944973984195842
0.6275,0.62375,0.6825,0.61625,0.71,0.55375,0.89625,0.8225,0.85375,0.77875,0.78875,0.75375,0.4952020505426729,0.4997637069966759,0.5408586647442829,0.5002073016235593,0.4977427156545762,0.4724831774178515,0.4361587193818939,0.2113477842920054
0.6275,0.62375,0.6825,0.61625,0.71,0.55375,0.89625,0.8225,0.85375,0.77875,0.78875,0.75375,0.495210060474989,0.49973967719972767,0.5408306299811767,0.5000691005411865,0.49829551998406774,0.476449287454065,0.4372797744328834,0.2137409001914731
0.6275,0.62375,0.6825,0.61625,0.71,0.55375,0.89625,0.8225,0.85375,0.77875,0.78875,0.75375,0.49518202571188275,0.4997356722335696,0.5408426448796507,0.5000460670274576,0.498721639976793,0.47680692595361823,0.43923653572012655,0.21584293002867203
0.62725,0.62375,0.6822499999999999,0.616,0.70975,0.55375,0.8952500000000001,0.8225,0.85275,0.778,0.7885,0.75325,0.49518202571188275,0.4997116424366214,0.5407905803195963,0.5000115167568644,0.49918231024011145,0.4793287261492166,0.43867940054054677,0.21683816841514417
0.627,0.62375,0.682,0.61575,0.7095,0.55375,0.89425,0.8225,0.85175,0.77725,0.78825,0.75275,0.4951339661179863,0.4996996275381473,0.5406904561656454,0.5000345502705932,0.49945871241611506,0.4793287261492166,0.43867940054054677,0.21683816841514417
0.6267499999999999,0.62375,0.68175,0.6154999999999999,0.7092499999999999,0.55375,0.89325,0.8225,0.85075,0.7765000000000001,0.7879999999999999,0.75225,0.4951339661179863,0.4996876126396732,0.5406624214025392,0.5000921340549153,0.4995508464822881,0.4793218415265659,0.44119565795531873,0.21994061443427282
0.6265,0.62375,0.6815000000000001,0.61525,0.7090000000000001,0.55375,0.89225,0.8225,0.8497499999999999,0.77575,0.7877500000000001,0.7517499999999999,0.4951219512195122,0.49968360767351516,0.5406744363010133,0.5001727513529661,0.4995969135097457,0.4796863601811367,0.4409164975283786,0.21884007901153785
0.62625,0.62375,0.68125,0.615,0.70875,0.55375,0.89125,0.8225,0.84875,0.775,0.7875,0.75125,0.4950578717609836,0.4996876126396732,0.5406383916055909,0.5001957848666949,0.49960843026661017,0.4789664993904405,0.44007843381105993,0.21873850925356542
0.62625,0.62375,0.68125,0.615,0.70875,0.55375,0.89125,0.8225,0.84875,0.775,0.7875,0.75125,0.49501782209940326,0.4996475629780928,0.5406023469101686,0.5002188183804237,0.49949326269796607,0.4789664993904405,0.44007843381105993,0.21873850925356542
0.62625,0.62375,0.68125,0.615,0.70875,0.55375,0.89125,0.8225,0.84875,0.775,0.7875,0.75125,0.49501782209940326,0.49968360767351516,0.5405743121470623,0.5001612345961017,0.4993435448587288,0.47932413788999384,0.44147334148970924,0.21793539569636944
0.6265,0.6235,0.68125,0.615,0.70875,0.55375,0.8917499999999999,0.8225,0.84875,0.7755,0.7877500000000001,0.75125,0.4950538667948256,0.499663582842725,0.5405943369778525,0.500253368651017,0.4993320281018644,0.47789130093125215,0.43784074745296175,0.21623530220347859
0.6267499999999999,0.6232500000000001,0.68125,0.615,0.70875,0.55375,0.89225,0.8225,0.84875,0.7759999999999999,0.7879999999999999,0.75125,0.49506187672714164,0.49965957787656695,0.5405663022147463,0.5002073016235593,0.49923989404694913,0.47753596326275993,0.4381201990981511,0.21553656256860848
0.627,0.623,0.68125,0.615,0.70875,0.55375,0.89275,0.8225,0.84875,0.7765000000000001,0.78825,0.75125,0.4951339661179863,0.499663582842725,0.5406023469101686,0.5002073016235593,0.4992629275606779,0.47789818555390284,0.43811960972788483,0.21323663115894975
0.62725,0.62275,0.68125,0.615,0.70875,0.55375,0.89325,0.8225,0.84875,0.777,0.7885,0.75125,0.49523008530577917,0.4997076374704634,0.5406383916055909,0.5001842681098305,0.4992629275606779,0.47464963994495757,0.438117543465069,0.21143173004479832
0.6275,0.6225,0.68125,0.615,0.70875,0.55375,0.89375,0.8225,0.84875,0.7775,0.78875,0.75125,0.4952461051704113,0.49969161760583125,0.5406704313348553,0.5001266843255084,0.4993896118861864,0.47828565890748687,0.43783514150166447,0.20663597459713778
0.6275,0.6225,0.68125,0.615,0.70875,0.55375,0.89375,0.8225,0.84875,0.7775,0.78875,0.75125,0.49521406544114704,0.49972766230125354,0.5406263767071168,0.49996544972940676,0.49942416215677965,0.4793608573666753,0.4378360290239478,0.20753429741668772
0.6275,0.6225,0.68125,0.615,0.70875,0.55375,0.89375,0.8225,0.84875,0.7775,0.78875,0.75125,0.4951780207457247,0.49978373182746605,0.5406544114702231,0.49989634918822035,0.49950477945483046,0.47827877428483623,0.4381154806691371,0.20773632134500772
0.6275,0.6225,0.68125,0.615,0.70875,0.55375,0.89375,0.8225,0.84875,0.7775,0.78875,0.75125,0.4951379710841443,0.4997997516920982,0.5406223717409588,0.4998042151333051,0.4994817459411017,0.4797253760212462,0.4389538390715889,0.20713675377779484
0.62725,0.6225,0.68125,0.615,0.70875,0.55375,0.89325,0.8227500000000001,0.8490000000000001,0.77725,0.7885,0.7517499999999999,0.4950458568625095,0.4997316672674116,0.5405983419440106,0.4997120810783898,0.4994817459411017,0.48225176894370037,0.4386740927412665,0.2079390442567204
0.627,0.6225,0.68125,0.615,0.70875,0.55375,0.89275,0.823,0.84925,0.777,0.78825,0.75225,0.4950338419640354,0.49970363250430533,0.5405903320116945,0.4998272486470339,0.49930899458813555,0.4822448843210497,0.435880151792104,0.2077377591994323
0.6267499999999999,0.6225,0.68125,0.615,0.70875,0.55375,0.89225,0.82325,0.8495,0.7767499999999999,0.7879999999999999,0.75275,0.4950538667948256,0.4996395530457768,0.5406103568424847,0.499942416215678,0.4991707935170205,0.4822448843210497,0.435880151792104,0.2077377591994323
0.6265,0.6225,0.68125,0.615,0.70875,0.55375,0.8917499999999999,0.8234999999999999,0.8497499999999999,0.7765000000000001,0.7877500000000001,0.75325,0.49508190155793186,0.49961952821498656,0.5406023469101686,0.5000460670274576,0.49897500865032557,0.48224947258027245,0.43727712226668525,0.20904299861996303
0.62625,0.6225,0.68125,0.615,0.70875,0.55375,0.89125,0.82375,0.85,0.77625,0.7875,0.75375,0.49510593135488007,0.49963554807961874,0.5406103568424847,0.5001382010823728,0.4989059081203969,0.47935626463981945,0.43616048749269265,0.208036425812571
0.62625,0.6225,0.68125,0.615,0.70875,0.55375,0.89125,0.82375,0.85,0.77625,0.7875,0.75375,0.49515799591493453,0.4996996275381473,0.540646401537907,0.500253368651017,0.49883680759046833,0.4815365008798601,0.436997667154612,0.2090440167044697
0.6265,0.6225,0.68125,0.615,0.70875,0.55375,0.8915000000000001,0.8234999999999999,0.8502500000000001,0.77625,0.7879999999999999,0.75375,0.49516600584725057,0.49973967719972767,0.5406824462333293,0.500253368651017,0.49887135787231934,0.47827877428483623,0.43532242377537395,0.2091424676289347
0.6267499999999999,0.6225,0.68125,0.615,0.70875,0.55375,0.8917499999999999,0.82325,0.8504999999999999,0.77625,0.7885,0.75375,0.4951860306780408,0.4997997516920982,0.5407184909287517,0.5002418518941526,0.4988483243360749,0.4789917459852486,0.43643994260476593,0.2106381679943612
0.627,0.6225,0.68125,0.615,0.70875,0.55375,0.892,0.823,0.85075,0.77625,0.789,0.75375,0.49518202571188275,0.49977171692899197,0.5407104809964356,0.5001497178392373,0.49894045839099016,0.4818849539257015,0.436163732496041,0.21363623755861555
0.62725,0.6225,0.68125,0.615,0.70875,0.55375,0.89225,0.8227500000000001,0.851,0.77625,0.7895,0.75375,0.49521406544114704,0.4997637069966759,0.5407104809964356,0.500115167568644,0.4988483243360749,0.4818849539257015,0.436163732496041,0.21363623755861555
0.6275,0.6225,0.68125,0.615,0.70875,0.55375,0.8925,0.8225,0.85125,0.77625,0.79,0.75375,0.4952020505426729,0.49975970203051784,0.5406904561656454,0.5000345502705932,0.49882529079983046,0.4800715371712928,0.4378398599306785,0.21403960669225108
0.6275,0.6225,0.68125,0.615,0.70875,0.55375,0.8925,0.8225,0.85125,0.77625,0.79,0.75375,0.49519804557651487,0.49971564740277946,0.540650406504065,0.4998733156744915,0.4987561902361284,0.480092191039245,0.4372821353808324,0.21233287475654125
0.6275,0.6225,0.68125,0.615,0.70875,0.55375,0.89225,0.8222499999999999,0.851,0.7759999999999999,0.78975,0.7535,0.49519804557651487,0.4997196523689375,0.5405743121470623,0.4997926983764407,0.4987446734905218,0.4797276723846741,0.4370015015282266,0.2115257217844493
0.6275,0.6225,0.68125,0.615,0.70875,0.55375,0.892,0.8220000000000001,0.85075,0.77575,0.7895,0.75325,0.49519003564419883,0.4997556970643598,0.5406103568424847,0.4997926983764407,0.49865253943560656,0.4750485861804151,0.439513924569384,0.20831558230501682
0.6275,0.6225,0.68125,0.615,0.70875,0.55375,0.8917499999999999,0.82175,0.8504999999999999,0.7755,0.78925,0.753,0.49514197605030236,0.49975970203051784,0.540646401537907,0.49974663134898306,0.49864102266748433,0.4750485861804151,0.439513924569384,0.20831558230501682
0.6275,0.6225,0.68125,0.615,0.70875,0.55375,0.8915000000000001,0.8215,0.8502500000000001,0.7752500000000001,0.789,0.75275,0.495101926388722,0.49975970203051784,0.540642396571749,0.49970056432152543,0.4985488886125691,0.4703970429343921,0.44677439421386494,0.19758975622160857
0.6275,0.6225,0.68125,0.615,0.7090000000000001,0.55375,0.89125,0.8215,0.85,0.775,0.7885,0.75225,0.49508190155793186,0.4997637069966759,0.5405983419440106,0.49975814810584746,0.49808821833799277,0.4703970429343921,0.44677439421386494,0.19758975622160857
0.6275,0.6225,0.68125,0.615,0.7092499999999999,0.55375,0.89125,0.82175,0.85,0.775,0.78825,0.752,0.4951219512195122,0.49972766230125354,0.5405703071809043,0.49960843026661017,0.4973281124074575,0.46643781305319626,0.45124269101998216,0.19668976065375843
0.62775,0.62275,0.6815000000000001,0.61525,0.70975,0.5539999999999999,0.8909999999999999,0.8215,0.84925,0.77375,0.7877500000000001,0.75,0.495210060474989,0.4996235331811446,0.540650406504065,0.49933202809060656,0.49693654267406767,0.46643781305319626,0.45124269101998216,0.19668976065375843
0.628,0.623,0.68175,0.6154999999999999,0.71025,0.55425,0.89075,0.82125,0.8484999999999999,0.7725,0.7872499999999999,0.748,0.4952260803396211,0.49956345868877405,0.5406143618086428,0.4991477599695182,0.49704019349710515,0.4682672998839674,0.45794602548488333,0.1925715417115867
0.62825,0.6232500000000001,0.682,0.61575,0.71075,0.5545,0.8905,0.821,0.84775,0.77125,0.78675,0.746,0.49531418959509793,0.4994913692979294,0.5406063518763267,0.49900955887588755,0.49702867675149853,0.46682987466600306,0.4612991644095576,0.1915687424014957
0.6285000000000001,0.6235,0.6822499999999999,0.616,0.711,0.55475,0.8902500000000001,0.8205,0.847,0.77,0.7865000000000001,0.74425,0.4953021746966238,0.4994272898394009,0.5406303816732748,0.4988598410366502,0.49727052867942456,0.4679211387339208,0.4652091472955625,0.1900622400834765
0.62875,0.62375,0.6825,0.61625,0.71125,0.555,0.89,0.82,0.84625,0.76875,0.78625,0.7425,0.4952260803396211,0.4993752252793464,0.540642396571749,0.49890590806410784,0.4976620983902988,0.4679211387339208,0.4652091472955625,0.1900622400834765
0.62875,0.62375,0.6825,0.61625,0.71125,0.555,0.89,0.82,0.84625,0.76875,0.78625,0.7425,0.49508590652408985,0.4994352997717169,0.5405062277223758,0.4991362432126538,0.4974547967442238,0.4607202523340635,0.4755450757972111,0.18764701693480437
0.629,0.6235,0.6825,0.61625,0.71125,0.555,0.8902500000000001,0.8205,0.8454999999999999,0.76825,0.7857500000000001,0.7415,0.4950578717609836,0.4994112699747687,0.5404982177900597,0.49927444430628454,0.49666014048680623,0.4607202523340635,0.4755450757972111,0.18764701693480437
0.62925,0.6232500000000001,0.6825,0.61625,0.71125,0.555,0.8905,0.821,0.8447499999999999,0.76775,0.78525,0.7404999999999999,0.4950298369978774,0.49944731467019104,0.5405142376546919,0.49928596107440676,0.4957848669651113,0.457114068225565,0.4836471453806084,0.18722191916796876
0.6295000000000001,0.623,0.6825,0.61625,0.71125,0.555,0.89075,0.8215,0.8440000000000001,0.76725,0.78475,0.7395,0.49512595618567024,0.49951539909487763,0.5405622972485883,0.49930899458813555,0.4949441437252674,0.44559861874365275,0.4973297262671184,0.1797020348648142
0.62975,0.62275,0.6825,0.61625,0.71125,0.555,0.8909999999999999,0.8220000000000001,0.84325,0.7667499999999999,0.78425,0.7384999999999999,0.49530617966278184,0.49956345868877405,0.5407385157595418,0.4991938270194915,0.49436830590456265,0.4478018007474403,0.516327220479693,0.1765885519992173
0.63,0.6225,0.6825,0.61625,0.71125,0.555,0.89125,0.8225,0.8425,0.76625,0.78375,0.7375,0.4955344627337899,0.49955945372261606,0.5408907044735471,0.49902107566652537,0.4940458367573905,0.44781556999274175,0.5230314424668775,0.17447762531905306
0.63,0.6225,0.6825,0.61625,0.71125,0.555,0.89125,0.8225,0.8425,0.76625,0.78375,0.7375,0.4957427209740078,0.49962753814730265,0.5409147342704954,0.49888287457289465,0.49441437297705154,0.44926446809257964,0.5302963358552394,0.17336765931875123
0.63025,0.62275,0.6827500000000001,0.6164999999999999,0.71175,0.5555,0.89125,0.8234999999999999,0.8422499999999999,0.765,0.7829999999999999,0.7354999999999999,0.4958428451279587,0.4996155232488286,0.5409027193720213,0.4989289416003523,0.4967753081680285,0.44855837654718483,0.5431446839311614,0.1700562786795173
0.6305,0.623,0.6829999999999999,0.61675,0.7122499999999999,0.556,0.89125,0.8245,0.8420000000000001,0.76375,0.7822499999999999,0.7334999999999999,0.4958588649925908,0.4995674636549321,0.5409147342704954,0.4990671426827252,0.4991938270870384,0.4442438134651299,0.5501280594115181,0.1681459918899046
0.63075,0.6232500000000001,0.68325,0.617,0.7127500000000001,0.5565,0.89125,0.8255,0.84175,0.7625,0.7815000000000001,0.7315,0.4957507309063238,0.4995194040610357,0.5407865753534382,0.49932051133374217,0.5015086952055264,0.44281098097402133,0.5554350127721043,0.16644528805281938
0.631,0.6235,0.6835,0.61725,0.71325,0.557,0.89125,0.8265,0.8415,0.76125,0.78075,0.7295,0.4956706315831631,0.4995073891625616,0.5407064760302775,0.49948174592984385,0.5037774962515256,0.44281098097402133,0.5554350127721043,0.16644528805281938
0.63125,0.62375,0.68375,0.6175,0.71375,0.5575,0.89125,0.8275,0.84125,0.76,0.78,0.7275,0.49543834354599703,0.4994913692979294,0.5407104809964356,0.4995508464822881,0.5053552919306916,0.439924657656219,0.5604616269652177,0.16664413743156437
0.63125,0.62375,0.68375,0.61725,0.7134999999999999,0.556,0.8915000000000001,0.8270000000000001,0.84175,0.762,0.7809999999999999,0.73125,0.49528214986583363,0.49943930473787496,0.5407064760302775,0.49949326268670824,0.505032822693457,0.4345050567933117,0.5531961442065897,0.16555062096706405
0.63125,0.62375,0.68375,0.617,0.71325,0.5545,0.8917499999999999,0.8265,0.8422499999999999,0.764,0.782,0.735,0.49511794625335415,0.4993552004485562,0.5402819496175257,0.4993896118749286,0.5038811469957584,0.4326962282981258,0.5456523885433048,0.16325895769519955
0.63125,0.62375,0.68375,0.61675,0.713,0.5529999999999999,0.892,0.826,0.8427500000000001,0.7659999999999999,0.7829999999999999,0.73875,0.4951860306780408,0.49941527494092675,0.5403260042452641,0.4992398940356913,0.5026718875137378,0.42693047075280505,0.5403380576537385,0.1597712584951657
0.63125,0.62375,0.68375,0.6164999999999999,0.7127500000000001,0.5515,0.89225,0.8255,0.84325,0.768,0.784,0.7425,0.49515799591493453,0.49943930473787496,0.5405062277223758,0.499032592412132,0.5020039156381177,0.4467311905474747,0.5090496452299549,0.1735593846384978
0.63125,0.62375,0.68375,0.61625,0.7125,0.55,0.8925,0.825,0.84375,0.77,0.785,0.74625,0.4953662541551524,0.49951539909487763,0.5406864511994873,0.49885984105916586,0.5019578486556914,0.44709570920204555,0.5051399570290831,0.17526486043013967
0.6305,0.62375,0.68375,0.61675,0.7122499999999999,0.55025,0.893,0.8240000000000001,0.8447499999999999,0.77125,0.7857500000000001,0.74775,0.4956025471584765,0.4997196523689375,0.5410709279506588,0.49763906480902304,0.5038696302276361,0.4481663194020112,0.5031849673195227,0.17757030329852408
0.62975,0.62375,0.68375,0.61725,0.7120000000000001,0.5505,0.8935,0.823,0.84575,0.7725,0.7865000000000001,0.74925,0.4960030437742801,0.49972766230125354,0.5422684128319115,0.4950247610008026,0.5096049750898218,0.4525015408196514,0.5090537742887026,0.18117311189407756
0.629,0.62375,0.68375,0.61775,0.71175,0.5507500000000001,0.894,0.8220000000000001,0.84675,0.77375,0.7872499999999999,0.75075,0.4959149345188033,0.49957947855340623,0.5427129640754536,0.49234135671894264,0.5163422781369456,0.45897797816958974,0.5174388386726546,0.18717213306280675
0.62825,0.62375,0.68375,0.6182500000000001,0.7115,0.551,0.8945000000000001,0.821,0.84775,0.775,0.7879999999999999,0.75225,0.49567463654932115,0.499335175617766,0.5427970683647723,0.4897731199494376,0.5231717153065314,0.4687075538553292,0.5272232379460207,0.19928207099170756
0.6275,0.62375,0.68375,0.61875,0.71125,0.55125,0.895,0.82,0.84875,0.77625,0.78875,0.75375,0.49526212503504347,0.49898273859585884,0.5427730385678241,0.48736611782106554,0.5297132333856397,0.4733751627100816,0.530298107432922,0.203184996717567
0.6275,0.62375,0.68375,0.61875,0.71125,0.55125,0.895,0.82,0.84875,0.77625,0.78875,0.75375,0.4945732708558613,0.4986062717770035,0.5423204773919661,0.486502361180071,0.5342047688554618,0.4791386238919744,0.5330941111780165,0.20829721183115976
0.6275,0.62375,0.68375,0.61875,0.71125,0.55125,0.895,0.82,0.84875,0.77625,0.78875,0.75375,0.49383235211662463,0.4982618446874124,0.5413793103448276,0.4871242659832021,0.5352643108922686,0.48382000645966133,0.5339342376912671,0.21340276254331123
0.6275,0.6245,0.68375,0.618,0.7115,0.551,0.89575,0.82,0.85,0.7785,0.78975,0.755,0.49335576114381835,0.49820978012735795,0.5404461532300052,0.4878383047511859,0.5351261095847394,0.4938957388278143,0.5328184904395578,0.22192386141431775
0.6275,0.62525,0.68375,0.61725,0.71175,0.5507500000000001,0.8965000000000001,0.82,0.85125,0.78075,0.7907500000000001,0.75625,0.4930513837158076,0.4980615963795106,0.5397132444230847,0.4887941956272208,0.5336749980171834,0.4938957388278143,0.5328184904395578,0.22192386141431775
0.6275,0.626,0.68375,0.6164999999999999,0.7120000000000001,0.5505,0.89725,0.82,0.8525,0.7829999999999999,0.79175,0.7575,0.49279106091553526,0.4979214225639793,0.5391124994993792,0.4898998042862039,0.5312679955735925,0.4953216866962722,0.5286305293340293,0.22653681687636795
0.6275,0.6267499999999999,0.68375,0.61575,0.7122499999999999,0.55025,0.898,0.82,0.85375,0.78525,0.7927500000000001,0.75875,0.4926949417277424,0.49775321398534184,0.5385197645079899,0.49078659450847417,0.528423356256576,0.5211884247235493,0.47248347754195236,0.25394514979941263
0.6275,0.6275,0.68375,0.615,0.7125,0.55,0.89875,0.82,0.855,0.7875,0.79375,0.76,0.4925267331491049,0.4978132884777124,0.5379951139412872,0.4915121502922522,0.5260854541064997,0.5518122806353041,0.4258384230598368,0.27201273655121494
0.6275,0.6275,0.68375,0.615,0.7125,0.55,0.89875,0.82,0.855,0.7875,0.79375,0.76,0.492318474908887,0.49759702030517844,0.5378949897873363,0.4927789936599151,0.5224346420566466,0.5518122806353041,0.4258384230598368,0.27201273655121494
0.6275,0.6275,0.68375,0.615,0.7125,0.55,0.89875,0.82,0.855,0.7875,0.79375,0.76,0.4921823060595138,0.49762105010212665,0.5377067563779087,0.4940803871293041,0.5187607965155803,0.5597422043443032,0.418018460754711,0.2770315481095514
0.6275,0.6275,0.68375,0.615,0.7125,0.55,0.89875,0.82,0.855,0.7875,0.79375,0.76,0.4921022067363531,0.49776923384997396,0.5375625775962193,0.49526661300753333,0.5149026830448086,0.5716359461937208,0.40461267934719203,0.2847532524708697
0.62725,0.62775,0.68375,0.61475,0.7125,0.54875,0.89925,0.82,0.8554999999999999,0.789,0.794,0.7615000000000001,0.4921382514317754,0.49789338780087306,0.5381112579598702,0.49590003464633353,0.5112288377739299,0.577034893188676,0.3976313701296512,0.28926652302418654
0.627,0.628,0.68375,0.6145,0.7125,0.5475,0.8997499999999999,0.82,0.856,0.7905,0.79425,0.763,0.49217830109335575,0.49786535303776686,0.5384316552525131,0.49648738921264485,0.5072785903383054,0.5846002982431041,0.3889739334774729,0.29558392986200055
0.6267499999999999,0.62825,0.68375,0.61425,0.7125,0.54625,0.9002500000000001,0.82,0.8565,0.792,0.7945,0.7645000000000001,0.49225439545035843,0.4978733629700829,0.539188593856382,0.49691350920537014,0.5046873201001029,0.589279384447363,0.3825518222354437,0.302096076385442
0.6265,0.6285000000000001,0.68375,0.614,0.7125,0.545,0.90075,0.82,0.857,0.7935,0.79475,0.7659999999999999,0.49239857423204775,0.4978413232408186,0.540414113500741,0.49761603136284116,0.503362893004407,0.6364554100772093,0.3336906107443682,0.34829301325825174
0.62625,0.62875,0.68375,0.61375,0.7125,0.54375,0.90125,0.82,0.8575,0.795,0.795,0.7675,0.49261083743842365,0.4984100284352597,0.5427690336016661,0.4986525395031534,0.505435909194969,0.6364554100772093,0.3336906107443682,0.34829301325825174
0.62625,0.62875,0.68375,0.61375,0.7125,0.54375,0.90125,0.82,0.8575,0.795,0.795,0.7675,0.4928150907124835,0.49904681805438744,0.545099923905643,0.499124726478305,0.5109985025465792,0.7221760343417307,0.25831705278866735,0.4393582069473381
0.62625,0.62875,0.68375,0.61375,0.7125,0.54375,0.90125,0.82,0.8575,0.795,0.795,0.7675,0.49313548800512635,0.49915895710681246,0.5490207857743602,0.4992053437876137,0.5206495450916557,0.7538796725042636,0.2393419719806302,0.4747260442067475
0.62625,0.62875,0.68375,0.61375,0.7125,0.54375,0.90125,0.82,0.8575,0.795,0.795,0.7675,0.4933117065160799,0.4987424406263767,0.5532820697665105,0.49976966486271185,0.5355982960645471,0.7693795984621798,0.2287324924702227,0.4849519078563978
0.62625,0.62825,0.6835,0.61275,0.71325,0.5429999999999999,0.9015000000000001,0.82125,0.858,0.79625,0.7955,0.76825,0.4934839200608755,0.4991189074452321,0.558356361888742,0.5011747091776539,0.5561096404340801,0.7693795984621798,0.2287324924702227,0.4849519078563978
0.62625,0.62775,0.68325,0.61175,0.7140000000000001,0.54225,0.9017499999999999,0.8225,0.8584999999999999,0.7975,0.7959999999999999,0.769,0.4938844166766791,0.4988705995434339,0.56370299170972,0.5036968790322794,0.5882183588872664,0.7787377664030646,0.21979677944650372,0.49416954937642954
0.62625,0.62725,0.6829999999999999,0.61075,0.71475,0.5415,0.902,0.82375,0.8590000000000001,0.79875,0.7965000000000001,0.7697499999999999,0.4936961832672514,0.5001441787816893,0.5686130802194721,0.5040193482357407,0.6370609264491478,0.7747418215128204,0.2189622554176665,0.5045971406462226
0.62625,0.6267499999999999,0.6827500000000001,0.60975,0.7155,0.5407500000000001,0.90225,0.825,0.8595,0.8,0.797,0.7705,0.4920701670070888,0.5005246505667027,0.5712042933237214,0.5013704943145364,0.6855119208777791,0.7621029767455317,0.21896019262173458,0.5051024524556008
0.628,0.6285000000000001,0.68525,0.612,0.71825,0.54425,0.9085,0.83175,0.863,0.80375,0.80025,0.77275,0.49060835435940564,0.5014137530537867,0.5729023989747286,0.4978348501260306,0.7288725085246703,0.7527195622098388,0.21867719782117975,0.5042113214407222
0.62975,0.63075,0.688,0.61525,0.7202500000000001,0.5485,0.9145,0.8372499999999999,0.866,0.80625,0.8029999999999999,0.77425,0.48867395570507427,0.5020865873683368,0.5719732468260643,0.4910629970447279,0.7666359522228815,0.7346978360563243,0.23486925143063211,0.4950063825509504
0.6315,0.633,0.69075,0.6185,0.72225,0.55275,0.9205,0.8427500000000001,0.8690000000000001,0.80875,0.8057500000000001,0.77575,0.4850094116704714,0.5020505426729144,0.5692899195001803,0.4817459407526802,0.7874121811109283,0.555911499332942,0.44845671697006595,0.29358934656162444
0.63325,0.63525,0.6934999999999999,0.62175,0.72425,0.557,0.9265000000000001,0.8482500000000001,0.872,0.81125,0.8085,0.77725,0.48189755296567743,0.5038968320717689,0.566474428291081,0.47781872652682356,0.7868017906217156,0.5307301945154745,0.4699507073590733,0.2619355670562003
0.635,0.6375,0.69625,0.625,0.72625,0.56125,0.9325,0.85375,0.875,0.81375,0.81125,0.77875,0.48356762385357843,0.5079698826544916,0.5597460851455806,0.49388460240896076,0.773212018197184,0.47998012046222155,0.4866827870759642,0.20082673818284855
0.635,0.6375,0.69625,0.625,0.72625,0.56125,0.9325,0.85375,0.875,0.81375,0.81125,0.77875,0.4795226080339621,0.5127718370779767,0.5513837158076014,0.523770587429012,0.749141996643276,0.38632956802106805,0.4891536283113949,0.10615801095619365
0.635,0.6375,0.69625,0.625,0.72625,0.56125,0.9325,0.85375,0.875,0.81375,0.81125,0.77875,0.4681284793143498,0.5135568104449517,0.5308983139092475,0.5810664554525093,0.6945756042633554,0.310029082236554,0.5025319797333454,0.008821889659219867
0.636,0.639,0.69575,0.6255,0.72625,0.56325,0.93375,0.8540000000000001,0.875,0.81375,0.81125,0.779,0.4617605831230726,0.5111097761223917,0.5219672393768273,0.636600255904384,0.6311413078594814,0.3161639511633015,0.49582569841711294,0.003505520743998277
0.637,0.6405,0.69525,0.626,0.72625,0.56525,0.935,0.85425,0.875,0.81375,0.81125,0.77925,0.4610396892146261,0.5001802234771117,0.5067123232808682,0.6800414624817094,0.5607624074603935,0.3161639511633015,0.49582569841711294,0.003505520743998277
0.638,0.642,0.69475,0.6265,0.72625,0.56725,0.93625,0.8545,0.875,0.81375,0.81125,0.7795000000000001,0.4556570146982258,0.4867555769153751,0.49909487764828386,0.683392838965666,0.4992398928085894,0.31399519227276745,0.4966643515046979,0.0034088451360487484
0.6395000000000001,0.644,0.69475,0.62775,0.7275,0.57,0.9377500000000001,0.856,0.8752500000000001,0.8140000000000001,0.81175,0.78,0.45993832352116626,0.4801714125515639,0.49308742841122993,0.6163192462668579,0.45380628843076093,0.31399519227276745,0.4966643515046979,0.0034088451360487484
0.6409999999999999,0.6459999999999999,0.69475,0.629,0.72875,0.57275,0.9392499999999999,0.8575,0.8755,0.8142499999999999,0.8122499999999999,0.7805,0.4719532219952741,0.47957066762785855,0.5003604469542232,0.5296441311107497,0.4371069916303237,0.31616624305909635,0.49554801488272243,0.004011099104108616
0.6415000000000001,0.6465000000000001,0.69525,0.62975,0.73,0.5735,0.9395,0.85875,0.87575,0.8145,0.8127500000000001,0.78075,0.4803436260963595,0.4828307100804998,0.49639553045776763,0.44565242389529164,0.43216630335203216,0.31616624305909635,0.49554801488272243,0.004011099104108616
0.642,0.647,0.69575,0.6305,0.73125,0.5742499999999999,0.93975,0.86,0.8759999999999999,0.81475,0.81325,0.7809999999999999,0.482742600825023,0.4916937001882334,0.49854619728463295,0.37773810831688964,0.43620868493263437,0.31580172440452553,0.49554713082732305,0.004213094541257729
0.6425,0.6475,0.69625,0.63125,0.7325,0.575,0.94,0.86125,0.87625,0.815,0.81375,0.78125,0.48579438503744643,0.5024189995594537,0.49823380992430616,0.3397558443807151,0.44332604110263507,0.3176082565362835,0.4947096564802706,0.004113079768079107
0.64275,0.64775,0.69675,0.6317499999999999,0.733,0.57575,0.94025,0.86125,0.8759999999999999,0.8155,0.8140000000000001,0.7822499999999999,0.48484921302414996,0.5048099643558012,0.49785734310545077,0.3677876300257916,0.45196360841320604,0.3168815155905697,0.4966643515046979,0.004007447169136793
0.643,0.648,0.6972499999999999,0.63225,0.7334999999999999,0.5765,0.9405,0.86125,0.87575,0.816,0.8142499999999999,0.78325,0.48413632904801956,0.5044214826384718,0.497773238816132,0.3919037196428763,0.4668662910977645,0.3168815155905697,0.4966643515046979,0.004007447169136793
0.64325,0.64825,0.6977500000000001,0.63275,0.7340000000000001,0.57725,0.94075,0.86125,0.8755,0.8165,0.8145,0.78425,0.48316712723777483,0.503228002723377,0.4979774920901918,0.4145571808567359,0.4859610735061235,0.3172437378817127,0.4963854892297748,0.0037096036342684218
0.6435,0.6485,0.69825,0.63325,0.7345,0.578,0.941,0.86125,0.8752500000000001,0.8170000000000001,0.81475,0.78525,0.4828627498097641,0.5010613160318795,0.49798950698866595,0.4283427391273924,0.5103535642972662,0.31434823804546486,0.49526885792266623,0.0037098144689330544
0.64375,0.64875,0.69875,0.63375,0.735,0.57875,0.94125,0.86125,0.875,0.8175,0.815,0.78625,0.48354759902278827,0.49938323521166245,0.4975769954743882,0.4332258428670882,0.5400322462752732,0.31435512266811555,0.49470995116540367,0.00410746194231541
0.64375,0.64875,0.69875,0.63375,0.735,0.57875,0.94125,0.86125,0.875,0.8175,0.815,0.78625,0.49853818735231686,0.500004004966158,0.4947775241299211,0.42805481859591454,0.5666129217937942,0.3165192888317937,0.4966649443418481,0.0041133925378218405
0.64375,0.64875,0.69875,0.63375,0.735,0.57875,0.94125,0.86125,0.875,0.8175,0.815,0.78625,0.5306500060074493,0.5014377828507349,0.5116744763506749,0.4191638827018735,0.5561557066960062,0.31688610384979254,0.4952700366631988,0.004511140046870903
0.64375,0.64875,0.69875,0.63375,0.735,0.57875,0.94125,0.86125,0.875,0.8175,0.815,0.78625,0.5365933757859747,0.49862229164163563,0.5289078457287036,0.42538293145368467,0.5019232975069886,0.3139860112866888,0.4958268771576455,0.004513016665327298
0.64375,0.64875,0.69875,0.63375,0.735,0.57875,0.94125,0.86125,0.875,0.8175,0.815,0.78625,0.5307821698906644,0.4988305498818535,0.5257879770915935,0.42977081666336003,0.4450650706799182,0.3139860112866888,0.4958268771576455,0.004513016665327298
0.64325,0.64825,0.6984999999999999,0.63375,0.735,0.578,0.941,0.86225,0.8752500000000001,0.8184999999999999,0.81475,0.7872499999999999,0.5245264127518122,0.4985261724538428,0.5227882574392246,0.4366348046101408,0.3805482003691497,0.31471275670003573,0.4944304995202144,0.005214655435120396
0.64275,0.64775,0.69825,0.63375,0.735,0.57725,0.94075,0.8632500000000001,0.8755,0.8195,0.8145,0.78825,0.510468981537106,0.49846609796147223,0.5425007008690776,0.46467810817163674,0.2915351830629651,0.31507957171803447,0.4952697419780656,0.004210908951881387
0.64225,0.64725,0.698,0.63375,0.735,0.5765,0.9405,0.86425,0.87575,0.8205,0.8142499999999999,0.78925,0.48194561255957385,0.49657575393487924,0.5444150746926188,0.49523206317599494,0.23445813599793142,0.32699396743540426,0.5567393723765525,0.028053484464280833
0.6417499999999999,0.6467499999999999,0.6977500000000001,0.63375,0.735,0.57575,0.94025,0.8652500000000001,0.8759999999999999,0.8215,0.8140000000000001,0.79025,0.4788778084825183,0.5018142496695903,0.5458488525771957,0.511539790805933,0.22033859129412098,0.43130661568990036,0.49819433938149016,0.27291239845579696
0.64125,0.64625,0.6975,0.63375,0.735,0.575,0.94,0.86625,0.87625,0.8225,0.81375,0.79125,0.4872521927189715,0.5044214826384718,0.5681685289759302,0.5322814695472227,0.20313255336399244,0.43130661568990036,0.49819433938149016,0.27291239845579696
0.64125,0.64625,0.6975,0.63375,0.735,0.575,0.94,0.86625,0.87625,0.8225,0.81375,0.79125,0.49692018102447033,0.5060555088309504,0.592098201770195,0.5429114357840783,0.22646550175807817,0.47520655275256546,0.469730837580919,0.32007255090526526
0.63775,0.64125,0.69375,0.62725,0.7302500000000001,0.5675,0.93625,0.86175,0.87625,0.823,0.812,0.79525,0.49763706996675877,0.5045696663863191,0.5850414513997357,0.5317862486305452,0.30802717646110817,0.6135870614771247,0.4522102393847983,0.4274132683536085
0.63425,0.63625,0.69,0.62075,0.7254999999999999,0.56,0.9325,0.85725,0.87625,0.8234999999999999,0.81025,0.79925,0.4949217029116104,0.5037166085946574,0.5779446513676959,0.5208453298570302,0.3916848986844127,0.9414622918852509,0.587146038345636,0.8283662633241882
0.63075,0.63125,0.68625,0.61425,0.72075,0.5525,0.92875,0.85275,0.87625,0.8240000000000001,0.8085,0.80325,0.4943690175818014,0.5016820857863751,0.5727542152268813,0.5113555222007586,0.4756996417327096,0.9562308797029646,0.5312746107589014,0.8362027111277645
0.62725,0.62625,0.6825,0.60775,0.716,0.545,0.925,0.8482500000000001,0.87625,0.8245,0.80675,0.8072499999999999,0.49381633225199245,0.4996475629780928,0.5675637790860667,0.501865714544487,0.5597143847810065,0.9562308797029646,0.5312746107589014,0.8362027111277645
0.62375,0.62,0.67925,0.602,0.71175,0.5365,0.9209999999999999,0.8425,0.87425,0.823,0.80425,0.8079999999999999,0.4918138491729745,0.4981817453642517,0.561912771837078,0.5034780605055041,0.6093400892428857,0.9742939135923833,0.44661896340711643,0.8295665786262261
0.62375,0.61875,0.67975,0.60275,0.7122499999999999,0.5355,0.9207500000000001,0.84125,0.87225,0.821,0.8035,0.80475,0.4927389963554808,0.499779726861308,0.5681004445512435,0.5044109178340367,0.6452608565260431,0.8192973613988973,0.30086410486918913,0.5903160237320234
0.62375,0.6175,0.68025,0.6035,0.7127500000000001,0.5345,0.9205,0.84,0.8702500000000001,0.8190000000000001,0.8027500000000001,0.8015000000000001,0.4936401137410389,0.5025311386118787,0.5726260563098242,0.5020614993886664,0.6854197876334265,0.7516833751231267,0.3779126115189949,0.5128180856649696
0.62375,0.61625,0.6807500000000001,0.60425,0.71325,0.5335,0.92025,0.83875,0.8682500000000001,0.8170000000000001,0.802,0.79825,0.49301133405422726,0.5046177259802155,0.5758620689655173,0.4952435794149998,0.7249107473155026,0.7516833751231267,0.3779126115189949,0.5128180856649696
0.62375,0.615,0.68125,0.605,0.71375,0.5325,0.92,0.8375,0.86625,0.815,0.80125,0.795,0.4921262365333013,0.5070327205735111,0.5770355240498217,0.48612230815851426,0.7661522516092805,0.7135537883326384,0.41671528682456316,0.4701624063283824
0.62725,0.62075,0.68425,0.60875,0.71675,0.53825,0.92325,0.84075,0.8682500000000001,0.81625,0.8029999999999999,0.79475,0.48726821258360364,0.5127678321118186,0.5674636549321158,0.5172521015239523,0.7738224115683976,0.6282803026621293,0.4797920293995084,0.37893868206619263
0.63075,0.6265,0.6872499999999999,0.6125,0.7197499999999999,0.544,0.9265000000000001,0.8440000000000001,0.8702500000000001,0.8175,0.80475,0.7945,0.48197765228883815,0.5167808082021706,0.5568024350194241,0.5502821597720176,0.7574340635670248,0.6282803026621293,0.4797920293995084,0.37893868206619263
0.63425,0.63225,0.69025,0.61625,0.72275,0.54975,0.92975,0.84725,0.87225,0.81875,0.8065000000000001,0.79425,0.48165725499619527,0.5157915815611358,0.5417717970283151,0.6020269472267601,0.7069676347845514,0.46558752418095256,0.5389160216084218,0.20851549535414196
0.63775,0.638,0.69325,0.62,0.72575,0.5555,0.9329999999999999,0.8504999999999999,0.87425,0.82,0.80825,0.794,0.47254595698666346,0.5157194921702911,0.5236212904000961,0.6612921793794222,0.6437867062436473,0.46558752418095256,0.5389160216084218,0.20851549535414196
0.64125,0.64375,0.69625,0.62375,0.72875,0.56125,0.93625,0.85375,0.87625,0.82125,0.81,0.79375,0.47289839400857064,0.5088269454123112,0.5162201129400457,0.720027640693806,0.5532765154309819,0.43066746715930004,0.5366635836592475,0.17256611657477747
0.64125,0.64375,0.69625,0.62375,0.72875,0.56125,0.93625,0.85375,0.87625,0.82125,0.81,0.79375,0.47758820937963076,0.4953782690536265,0.5125435540069686,0.7264770254384993,0.47423701368973464,0.3241443680619165,0.5055950514142697,0.028968584784666136
0.642,0.64425,0.6965,0.624,0.72875,0.5625,0.9377500000000001,0.855,0.87625,0.8215,0.80975,0.7929999999999999,0.48022748207777644,0.4814930513837158,0.5107333093035363,0.7214557211117745,0.38856386071508897,0.3241443680619165,0.5055950514142697,0.028968584784666136
0.64275,0.6447499999999999,0.69675,0.62425,0.72875,0.56375,0.9392499999999999,0.85625,0.87625,0.82175,0.8095,0.7922499999999999,0.47802475069085665,0.4725419520205054,0.5135047458848973,0.6905792968701816,0.3302660384356315,0.30974488715799675,0.49218366752233744,0.01112861906225455
0.6435,0.6452500000000001,0.6970000000000001,0.6245,0.72875,0.565,0.94075,0.8575,0.87625,0.8220000000000001,0.80925,0.7915000000000001,0.484961352076575,0.4630381673274861,0.517045135968601,0.6454451251762487,0.2843141771731929,0.322372259043412,0.49637162516098204,0.004012556585784266
0.64425,0.64575,0.6972499999999999,0.62475,0.72875,0.56625,0.9422499999999999,0.85875,0.87625,0.8222499999999999,0.809,0.7907500000000001,0.4830069285914534,0.4604910088509752,0.5093876406744363,0.5747552698538445,0.27483588734327824,0.322372259043412,0.49637162516098204,0.004012556585784266
0.645,0.64625,0.6975,0.625,0.72875,0.5675,0.94375,0.86,0.87625,0.8225,0.80875,0.79,0.4805438744042613,0.46356682286034684,0.5059273499138932,0.5035932275112573,0.2881147091674948,0.3173240659253594,0.49553385612879647,0.004011203571735238
0.645,0.64625,0.6975,0.625,0.72875,0.5675,0.94375,0.86,0.87625,0.8225,0.80875,0.79,0.47957867756017464,0.46918178541391325,0.5003244022588009,0.4385811329064667,0.31635379569311484,0.31659732051201256,0.4969311212885108,0.0042116433909533905
0.645,0.64625,0.6975,0.625,0.72875,0.5675,0.94375,0.86,0.87625,0.8225,0.80875,0.79,0.47792462653690576,0.47784452721374504,0.49428891825864074,0.3829091318675631,0.34972935562265106,0.31659732051201256,0.4969311212885108,0.0042116433909533905
0.6452500000000001,0.6467499999999999,0.6975,0.627,0.7297499999999999,0.5685,0.94325,0.86075,0.87575,0.8227500000000001,0.80975,0.7909999999999999,0.4763827145660619,0.48847771236333054,0.4897993511954824,0.34672348204726733,0.3943107228069674,0.316223620871363,0.4966522590135878,0.004313923528786861
0.6455,0.64725,0.6975,0.629,0.73075,0.5695,0.9427500000000001,0.8615,0.8752500000000001,0.823,0.8107500000000001,0.792,0.4745244102687332,0.49864632143858384,0.48782089791341265,0.33892663797654027,0.42799723621881947,0.3144193806353998,0.4955365117618786,0.004313721558042063
0.64575,0.64775,0.6975,0.631,0.73175,0.5705,0.9422499999999999,0.86225,0.8747499999999999,0.82325,0.81175,0.7929999999999999,0.4733309303536385,0.5074732668508951,0.48757659497777245,0.3541287587487459,0.4614764473091277,0.3144193806353998,0.4955365117618786,0.004313721558042063
0.6459999999999999,0.64825,0.6975,0.633,0.73275,0.5715,0.94175,0.863,0.87425,0.8234999999999999,0.8127500000000001,0.794,0.473050582722576,0.5134046217309464,0.4883295286154832,0.38569619024848495,0.49089024458849584,0.315861394112587,0.4958171456144843,0.0040156690879204465
0.64625,0.64875,0.6975,0.635,0.73375,0.5725,0.94125,0.86375,0.87375,0.82375,0.81375,0.795,0.4739276703111859,0.514369818575033,0.48959109295526454,0.42454220983496627,0.5181734420393315,0.3165881395259339,0.49441988045477,0.003508955512934159
0.6465000000000001,0.649,0.6975,0.63425,0.7345,0.573,0.9415,0.8640000000000001,0.8734999999999999,0.8240000000000001,0.81375,0.795,0.47542152268813326,0.5079738876206497,0.49258680764147544,0.4467234833081427,0.5294713803769634,0.3151438296853188,0.49442017513990305,0.0037129206396979268
0.6467499999999999,0.64925,0.6975,0.6335000000000001,0.7352500000000001,0.5735,0.94175,0.86425,0.8732500000000001,0.8242499999999999,0.81375,0.795,0.47697544955745125,0.5015138772077375,0.49557451239537026,0.46673960680602944,0.5398940456882443,0.31622132450793505,0.4955385780246944,0.004817309335012417
0.647,0.6495000000000001,0.6975,0.63275,0.736,0.574,0.9420000000000001,0.8645,0.873,0.8245,0.81375,0.795,0.4780087308262245,0.4943930473787497,0.49813769073651326,0.4710353566098517,0.5430841871933335,0.31513694506266804,0.4958183243550169,0.004311737939410519
0.64725,0.6497499999999999,0.6975,0.632,0.73675,0.5745,0.9422499999999999,0.8647499999999999,0.87275,0.82475,0.81375,0.795,0.4783811926789219,0.4878048780487805,0.49943930473787496,0.459795001369815,0.5441897962125667,0.3158522175941415,0.49581773498475057,0.004811898545090567
0.6475,0.65,0.6975,0.63125,0.7375,0.575,0.9425,0.865,0.8725,0.825,0.81375,0.795,0.47868156514077453,0.4830870279146141,0.49944731467019104,0.4368190710988458,0.5483818955761172,0.31333270929433793,0.49525912291262114,0.003910254921288337
0.6475,0.65,0.6975,0.63125,0.7375,0.575,0.9425,0.865,0.8725,0.825,0.81375,0.795,0.47820096920181027,0.4839080459770115,0.4978052785453963,0.4175515379567006,0.5671657273841612,0.31621443988528436,0.4947005143073757,0.003815124801075676
0.6475,0.65,0.6975,0.63125,0.7375,0.575,0.9425,0.865,0.8725,0.825,0.81375,0.795,0.4861708518563018,0.48172133445472387,0.492875165204854,0.40206150025551823,0.5949095939387602,0.3147747227715252,0.4949811446930975,0.0035113582683464453
0.6475,0.65,0.6975,0.63125,0.7375,0.575,0.9425,0.865,0.8725,0.825,0.81375,0.795,0.5200208258240218,0.4809323561215908,0.5192118226600986,0.3931475299696387,0.5431993555500246,0.31657437028063246,0.4958180296698837,0.005115568207838745
0.64725,0.6502500000000001,0.6984999999999999,0.63225,0.73775,0.57475,0.9422499999999999,0.8652500000000001,0.87225,0.82525,0.81375,0.79625,0.5541711722535945,0.48040370058873005,0.5460891505466778,0.3887250953337063,0.4893124499900801,0.31656978202140973,0.4974947464747874,0.0045162488303812426
0.647,0.6505,0.6995,0.63325,0.738,0.5745,0.9420000000000001,0.8654999999999999,0.872,0.8255,0.81375,0.7975,0.5607273018542993,0.4831390924746686,0.5399455324602507,0.4160313264558802,0.4192445030733081,0.3158522175941415,0.4966560933872024,0.005513634818001849
0.6467499999999999,0.65075,0.7005,0.63425,0.7382500000000001,0.5742499999999999,0.94175,0.86575,0.87175,0.82575,0.81375,0.79875,0.5694621330449757,0.48231406944611316,0.5572309663983339,0.4461130944400555,0.32737533069518815,0.31910535146230945,0.49609807415222323,0.004918049683343202
0.6465000000000001,0.6509999999999999,0.7015,0.63525,0.7384999999999999,0.574,0.9415,0.866,0.8715,0.826,0.81375,0.8,0.5638271456606192,0.49003964916496456,0.5790500220273138,0.47451341630479305,0.23977888021355398,0.31548999083536544,0.49554005145036006,0.0037089913906627053
0.64625,0.65125,0.7025,0.63625,0.73875,0.57375,0.94125,0.86625,0.87125,0.82625,0.81375,0.80125,0.5336136809643959,0.4951940406103568,0.5796387520525451,0.49560059860760886,0.247552691333443,0.3628037133858589,0.6072879162710922,0.028033631816400017
0.64625,0.65125,0.7025,0.63625,0.73875,0.57375,0.94125,0.86625,0.87125,0.82625,0.81375,0.80125,0.5041731747366734,0.5000360446954223,0.5717850134166367,0.5132673042005004,0.27518139169285155,0.3500111016215605,0.4891256089555601,0.04485813611923699
0.64125,0.645,0.6972499999999999,0.6285000000000001,0.733,0.5660000000000001,0.937,0.86075,0.8715,0.8255,0.8122499999999999,0.80325,0.5028555408706796,0.5009571869117706,0.592975289358805,0.5036047449998798,0.3280663374129592,0.33793376238873546,0.35980051438988747,0.08330324459917074
0.63625,0.63875,0.6920000000000001,0.62075,0.72725,0.55825,0.9327500000000001,0.8552500000000001,0.87175,0.82475,0.8107500000000001,0.80525,0.4993992550762946,0.5046978253033761,0.5906964636148825,0.494990211000397,0.39024530935627744,0.36609318698189247,0.4489306850713086,0.11509329990754227
0.63125,0.6325,0.68675,0.613,0.7215,0.5505,0.9285,0.8497499999999999,0.872,0.8240000000000001,0.80925,0.8072499999999999,0.5003083823941687,0.501662060955585,0.5849733669750491,0.4858919731450621,0.44945295480884323,0.3797039564009758,0.4710163200024273,0.1602038709666096
0.62625,0.62625,0.6815000000000001,0.60525,0.71575,0.54275,0.92425,0.84425,0.87225,0.82325,0.8077500000000001,0.80925,0.4998037566582562,0.4992110216668669,0.5680083303296087,0.4837498563682824,0.49851433900618697,0.3797039564009758,0.4710163200024273,0.1602038709666096
0.62125,0.62,0.67625,0.5975,0.71,0.535,0.92,0.83875,0.8725,0.8225,0.80625,0.81125,0.4977091593576034,0.4985181625215267,0.5564940526252553,0.48605320765110127,0.528665208004377,0.46807260936750256,0.5747231670655789,0.26902154855443783
0.62125,0.62,0.67625,0.5975,0.71,0.535,0.92,0.83875,0.8725,0.8225,0.80625,0.81125,0.49450118146501665,0.4977251792222356,0.5489807361127799,0.48909363132821104,0.5412760567821607,0.6690693955041296,0.48266441899799406,0.4747208461509017
0.62125,0.62,0.67625,0.5975,0.71,0.535,0.92,0.83875,0.8725,0.8225,0.80625,0.81125,0.4917457647482879,0.4966037886979855,0.543878409227442,0.49323966366430383,0.5509270993272373,0.6982053330083039,0.49945696463731937,0.5267089250119328
0.62125,0.62,0.67625,0.5975,0.71,0.535,0.92,0.83875,0.8725,0.8225,0.80625,0.81125,0.4910048460090512,0.49682005687051944,0.5429132123833553,0.4990556258695717,0.5524588280239768,0.6982053330083039,0.49945696463731937,0.5267089250119328
0.6214999999999999,0.6195,0.67675,0.598,0.71075,0.534,0.9195,0.83875,0.872,0.8222499999999999,0.8055,0.8095,0.4910008410428932,0.49802154671793025,0.5483759862229164,0.5048485544035013,0.5584820916501634,0.7217220066574345,0.4925269722355502,0.6303598826099686
0.62175,0.619,0.6772499999999999,0.5985,0.7115,0.5329999999999999,0.919,0.83875,0.8715,0.8220000000000001,0.80475,0.8077500000000001,0.49196603788697985,0.49786535303776686,0.5581801433777884,0.5118392257413918,0.5736611780305305,0.7136520851967272,0.4900287044814348,0.6671390863689503
0.622,0.6185,0.6777500000000001,0.599,0.7122499999999999,0.532,0.9185,0.83875,0.871,0.82175,0.804,0.8059999999999999,0.49356001441787817,0.49986383115062677,0.5676238535784373,0.5148911663442333,0.6194057344496744,0.7136520851967272,0.4900287044814348,0.6671390863689503
0.62225,0.618,0.67825,0.5995,0.713,0.531,0.9179999999999999,0.83875,0.8704999999999999,0.8215,0.80325,0.80425,0.4947014297729184,0.5021907164884457,0.5746565741519484,0.5168374982880914,0.6681100971015257,0.7041539195041342,0.4607020699259253,0.6899345917236454
0.6225,0.6175,0.67875,0.6,0.71375,0.53,0.9175,0.83875,0.87,0.82125,0.8025,0.8025,0.4956025471584765,0.5031959629941127,0.5796507669510192,0.5161925599937472,0.7215708829839638,0.7629712433734837,0.0,0.6777547358282268
0.626,0.622,0.682,0.60375,0.71675,0.535,0.92175,0.8422499999999999,0.8704999999999999,0.821,0.804,0.8015000000000001,0.4947294645360247,0.5050502623252834,0.5801313628899836,0.5105608660784349,0.7683519474083261,0.7450298407959827,0.07317509592226422,0.6509375649438432
0.6295000000000001,0.6265,0.68525,0.6075,0.7197499999999999,0.54,0.9259999999999999,0.84575,0.871,0.82075,0.8055,0.8005,0.49293924466338257,0.50713684969362,0.5792382554367416,0.5041460326062804,0.7995508401666535,0.7357336299913211,0.12568453362967874,0.6323271017235413
0.633,0.631,0.6884999999999999,0.61125,0.72275,0.545,0.93025,0.84925,0.8715,0.8205,0.807,0.7995,0.48756858504545636,0.5104369418078417,0.5760743321718932,0.5156282385133677,0.7958885145233823,0.6985235669836657,0.27146638185891686,0.5494885816779636
0.6365,0.6355,0.69175,0.615,0.72575,0.55,0.9345,0.85275,0.872,0.82025,0.8085,0.7985,0.48290279947134446,0.5148303896832072,0.5695342224358204,0.5417367270117057,0.7809743157236548,0.6816963831730958,0.3175419105183253,0.5156776881386658
0.64,0.64,0.695,0.61875,0.72875,0.555,0.93875,0.85625,0.8725,0.82,0.81,0.7975,0.48037166085946575,0.5181384917297449,0.5555128359165366,0.5828054816524476,0.7413797048808068,0.6816963831730958,0.3175419105183253,0.5156776881386658
0.64,0.64,0.695,0.61875,0.72875,0.555,0.93875,0.85625,0.8725,0.82,0.81,0.7975,0.47960270735712285,0.5171612799871841,0.5408066001842284,0.6320511346801221,0.6901301384778356,0.44439528409871165,0.5274460615092741,0.18206835703403357
0.64,0.64,0.695,0.61875,0.72875,0.555,0.93875,0.85625,0.8725,0.82,0.81,0.7975,0.4711241940005607,0.5148383996155232,0.5184548840562297,0.6835540739445335,0.6333525278793235,0.41919332541329196,0.5218466799569892,0.14884831909502577
0.64,0.64,0.695,0.61875,0.72875,0.555,0.93875,0.85625,0.8725,0.82,0.81,0.7975,0.47528134887260204,0.5025391485441948,0.5091153029756899,0.7141195475858113,0.5562593565959028,0.37309479460606204,0.5193094825633454,0.09541052398525834
0.64,0.64,0.695,0.61875,0.72875,0.555,0.93875,0.85625,0.8725,0.82,0.81,0.7975,0.4774200008009932,0.48824542432616447,0.4992310464976571,0.7205458964976658,0.47093170652983,0.3641126182016216,0.5131556179976787,0.07439893124882101
0.6409999999999999,0.64125,0.69525,0.61975,0.7290000000000001,0.557,0.94,0.85675,0.8740000000000001,0.82075,0.81025,0.79675,0.4740838639913493,0.4751371700909127,0.49889863430654013,0.6954624006098775,0.3939652222400202,0.3641126182016216,0.5131556179976787,0.07439893124882101
0.642,0.6425,0.6955,0.62075,0.72925,0.5589999999999999,0.94125,0.85725,0.8755,0.8215,0.8105,0.7959999999999999,0.4691617605831231,0.46606191677680325,0.4987544555248508,0.6543475775457088,0.32766325356829173,0.34248700877066973,0.5139868970231677,0.055576183479853325
0.643,0.64375,0.69575,0.62175,0.7295,0.561,0.9425,0.85775,0.877,0.8222499999999999,0.8107500000000001,0.79525,0.472602026512876,0.45892506708318315,0.5048620289158556,0.5982264188349592,0.2774271605985754,0.3320719998751207,0.4988926044716519,0.029959158849893912
0.644,0.645,0.696,0.62275,0.7297499999999999,0.563,0.94375,0.8582500000000001,0.8785,0.823,0.8109999999999999,0.7945,0.467367535744323,0.4593616083944091,0.5001361688493732,0.5355522278212455,0.2611654995908135,0.32270694284395207,0.4963772311122794,0.021945628289000586
0.645,0.64625,0.69625,0.62375,0.73,0.565,0.945,0.85875,0.88,0.82375,0.81125,0.79375,0.4637110016420361,0.4629740878689575,0.49777724378229005,0.4708050207970946,0.271726364048123,0.3234359846207269,0.5030808567954297,0.01613528641728057
0.645,0.64625,0.69625,0.62375,0.73,0.565,0.945,0.85875,0.88,0.82375,0.81125,0.79375,0.46311426168448877,0.46776803236012654,0.49345588529776924,0.4240815373088268,0.2925832082641029,0.31948364382981487,0.5002839689949359,0.004212187255748953
0.645,0.64625,0.69625,0.62375,0.73,0.565,0.945,0.85875,0.88,0.82375,0.81125,0.79375,0.463474708638712,0.4737114021386519,0.4889823380992431,0.3819071754501022,0.320165841280835,0.3176725189712009,0.497212639196516,0.004115779464805852
0.645,0.64625,0.69625,0.62375,0.73,0.565,0.945,0.85875,0.88,0.82375,0.81125,0.79375,0.46359886258961114,0.48218190556289797,0.4859706035484,0.3516756889624785,0.3526200615618439,0.3176725189712009,0.497212639196516,0.004115779464805852
0.6452500000000001,0.6467499999999999,0.6965,0.6245,0.731,0.5660000000000001,0.94475,0.8602500000000001,0.87925,0.82375,0.8115000000000001,0.795,0.4635788377588209,0.49187392366534505,0.4841763787095999,0.3418403783075715,0.38858689330567686,0.31370640893498747,0.49609541851914113,0.004310182954616692
0.6455,0.64725,0.69675,0.62525,0.732,0.5670000000000001,0.9445,0.86175,0.8785,0.82375,0.81175,0.79625,0.4640073691377308,0.5004125115142777,0.4841323240818615,0.3550500983972732,0.4263157893788816,0.3147816073941759,0.49525823885722176,0.00411204142318421
0.64575,0.64775,0.6970000000000001,0.626,0.733,0.568,0.9442499999999999,0.8632500000000001,0.87775,0.82375,0.812,0.7975,0.46607393167527733,0.5068444871640835,0.4854339380832232,0.388414143652641,0.4766555340497449,0.3162282091305858,0.4958171456144843,0.004713141815391321
0.6459999999999999,0.64825,0.6972499999999999,0.6267499999999999,0.7340000000000001,0.569,0.9440000000000001,0.8647499999999999,0.877,0.82375,0.8122499999999999,0.79875,0.469490167808082,0.5088109255476791,0.48823340942769033,0.43269607238905994,0.5232983993280788,0.31875230568961205,0.4960960078894074,0.004108300849014037
0.64625,0.64875,0.6975,0.6275,0.735,0.57,0.94375,0.86625,0.87625,0.82375,0.8125,0.8,0.47385558092034125,0.5064039408866995,0.4915495214065441,0.47529655536629134,0.5615916153055688,0.315139241426096,0.4969343662918592,0.004011099104108616
0.64625,0.64875,0.6975,0.6275,0.735,0.57,0.94375,0.86625,0.87625,0.82375,0.8125,0.8,0.4783371380511835,0.5014778325123153,0.49526212503504347,0.5078198770215651,0.5899573873837991,0.3129727788989899,0.49414160755011316,0.004017331072889423
0.64625,0.64875,0.6975,0.6275,0.735,0.57,0.94375,0.86625,0.87625,0.82375,0.8125,0.8,0.4826945412311266,0.49469341984060233,0.4994112699747687,0.5253368648315084,0.608165379930138,0.316945773557854,0.49553739581727796,0.003610210601752481
0.64625,0.64925,0.6975,0.62825,0.7354999999999999,0.57075,0.9442499999999999,0.86625,0.87575,0.82375,0.8127500000000001,0.7995,0.4861227922624054,0.48922263606872524,0.502903600464576,0.508418748513608,0.6065184835972074,0.31550146818487207,0.49581655624421805,0.004110476941333415
0.64625,0.6497499999999999,0.6975,0.629,0.736,0.5715,0.94475,0.86625,0.8752500000000001,0.82375,0.813,0.799,0.4883295286154832,0.48574232047739196,0.504565661420161,0.4806403310917515,0.6004606691037635,0.31622591723479093,0.49693377692159296,0.004312270407737725
0.64625,0.6502500000000001,0.6975,0.62975,0.7365,0.57225,0.94525,0.86625,0.8747499999999999,0.82375,0.81325,0.7985,0.48982738595858866,0.48365573310905524,0.5048420040850655,0.4480133579154557,0.596026717992412,0.3158522175941415,0.4974932730491217,0.0025057256695940693
0.64625,0.65075,0.6975,0.6305,0.737,0.573,0.94575,0.86625,0.87425,0.82375,0.8134999999999999,0.7979999999999999,0.4905683046978253,0.48454083062998116,0.5039769313949297,0.41542093452566703,0.5970977775853882,0.31693888893520333,0.4969349556621255,0.004509784500273348
0.64625,0.65125,0.6975,0.63125,0.7375,0.57375,0.94625,0.86625,0.87375,0.82375,0.81375,0.7975,0.46569746485642194,0.4959990388081221,0.527393968520966,0.39943567541246333,0.5049291696413719,0.315863690476015,0.4966563880723356,0.004009730261631316
0.6465000000000001,0.6509999999999999,0.69825,0.6325,0.73775,0.5735,0.946,0.86625,0.8732500000000001,0.8240000000000001,0.81375,0.79825,0.46417157275021026,0.5020945973006528,0.5349513396611799,0.4039156945869914,0.428676721237545,0.3144102041169543,0.49525823885722176,0.004014921986105822
0.6467499999999999,0.65075,0.6990000000000001,0.63375,0.738,0.57325,0.94575,0.86625,0.87275,0.8242499999999999,0.81375,0.799,0.460354840001602,0.5134326564940527,0.5447755216468421,0.4532074126157167,0.3424507601507817,0.3172965229671235,0.4952600104349045,0.004115459730554681
0.647,0.6505,0.69975,0.635,0.7382500000000001,0.573,0.9455,0.86625,0.87225,0.8245,0.81375,0.79975,0.4605430734110297,0.5143898434058232,0.5711281989667187,0.4896924994429092,0.24141425142506295,0.34225100605066744,0.5782475145857179,0.02771991616679366
0.64725,0.6502500000000001,0.7005,0.63625,0.7384999999999999,0.57275,0.94525,0.86625,0.87175,0.82475,0.81375,0.8005,0.46659858224198003,0.5192238375585726,0.5929993191557531,0.5237475508756729,0.14483472820253407,0.34225100605066744,0.5782475145857179,0.02771991616679366
0.6475,0.65,0.70125,0.6375,0.73875,0.5725,0.945,0.86625,0.87125,0.825,0.81375,0.80125,0.4939084464736273,0.5157635467980296,0.5929031999679603,0.5372336737605581,0.15467004029844156,0.34683829132940613,0.5022652099495324,0.03563605694105365
0.6475,0.65,0.70125,0.6375,0.73875,0.5725,0.945,0.86625,0.87125,0.825,0.81375,0.80125,0.4955624974968961,0.5188073210781369,0.6136168849373222,0.5371645727465434,0.15951859749388125,0.34683829132940613,0.5022652099495324,0.03563605694105365
0.64075,0.644,0.69525,0.6317499999999999,0.731,0.56525,0.94,0.86,0.87125,0.82525,0.81175,0.80425,0.5018382794665385,0.5104129120108936,0.6170811806640234,0.5028791889233986,0.2299320513607821,0.35826424071685925,0.4430660071608764,0.06984169248743925
0.634,0.638,0.6892499999999999,0.626,0.7232500000000001,0.5579999999999999,0.935,0.85375,0.87125,0.8255,0.80975,0.8072499999999999,0.5042172293644118,0.5119388041171052,0.6048420040850655,0.48729701725736346,0.3119543948861301,0.37369531151300206,0.4525830368795115,0.10192878977907126
0.62725,0.632,0.68325,0.62025,0.7155,0.5507500000000001,0.93,0.8475,0.87125,0.82575,0.8077500000000001,0.81025,0.4997997516920982,0.5070527454043013,0.5947855340622372,0.47997235984656916,0.39184613598239026,0.3688326279253358,0.4537188400546932,0.13881229021764882
0.6204999999999999,0.626,0.6772499999999999,0.6145,0.7077500000000001,0.5435,0.925,0.84125,0.87125,0.826,0.8057500000000001,0.81325,0.4984060234691017,0.5017341503464295,0.5805198446073131,0.4821029598552267,0.46348036462466,0.49845586983239926,0.6127753729429304,0.24495767452003817
0.61375,0.62,0.67125,0.60875,0.7,0.53625,0.92,0.835,0.87125,0.82625,0.80375,0.81625,0.4977291841883936,0.49701630021226323,0.5563698986743562,0.49152366717295254,0.5301739028271376,0.49845586983239926,0.6127753729429304,0.24495767452003817
0.61375,0.62,0.67125,0.60875,0.7,0.53625,0.92,0.835,0.87125,0.82625,0.80375,0.81625,0.4944731467019104,0.4977652288838159,0.5479114101485842,0.49565818271840756,0.5359553146267185,0.5695111800866011,0.606118935016804,0.2940648888962383
0.61375,0.62,0.67125,0.60875,0.7,0.53625,0.92,0.835,0.87125,0.82625,0.80375,0.81625,0.4915775561696504,0.4983459489767311,0.5405743121470623,0.5003224691021408,0.5379822637560494,0.723785968277678,0.5523222433101984,0.42044832368071144
0.61375,0.62,0.67125,0.60875,0.7,0.53625,0.92,0.835,0.87125,0.82625,0.80375,0.81625,0.4906684288517762,0.49948335936561333,0.5389603107853739,0.5023839686371588,0.5315443969277756,0.8656911714824758,0.3145580328667667,0.7752187292990076
0.614,0.619,0.6715000000000001,0.60675,0.70125,0.53425,0.91875,0.835,0.87175,0.826,0.8027500000000001,0.81475,0.49099683607673517,0.4996755977411991,0.5409187392366535,0.5028791892386174,0.5246228262436496,0.8656911714824758,0.3145580328667667,0.7752187292990076
0.61425,0.618,0.67175,0.60475,0.7025,0.53225,0.9175,0.835,0.87225,0.82575,0.80175,0.81325,0.49225439545035843,0.4981336857703552,0.5485201650046057,0.5049291718929351,0.5257284345423826,0.9347360825700088,0.06952819752246621,0.7577328885704537
0.6145,0.617,0.672,0.60275,0.70375,0.53025,0.91625,0.835,0.87275,0.8255,0.8007500000000001,0.81175,0.49402459049221037,0.49897072369738477,0.5588930273539189,0.5094552573293893,0.5402049975494346,0.9347360825700088,0.06952819752246621,0.7577328885704537
0.61475,0.616,0.6722499999999999,0.60075,0.705,0.52825,0.915,0.835,0.8732500000000001,0.82525,0.79975,0.81025,0.49496175257319075,0.5019544234851215,0.5681324842805078,0.5138546582939835,0.5823102603755201,0.9303939765297181,0.061976183741685814,0.7542426359283706
0.615,0.615,0.6725,0.59875,0.70625,0.52625,0.91375,0.835,0.87375,0.825,0.79875,0.80875,0.4962914013376587,0.5026192478673556,0.5735672233569626,0.5149141999705402,0.6330876440813098,0.9214347503566577,0.11503656477400058,0.7383378139593362
0.615,0.615,0.6725,0.59875,0.70625,0.52625,0.91375,0.835,0.87375,0.825,0.79875,0.80875,0.4957467259401658,0.5050863070207057,0.5771516680684048,0.514246228049889,0.687366120973254,0.9121064172698037,0.159163004360279,0.7264397104186009
0.615,0.615,0.6725,0.59875,0.70625,0.52625,0.91375,0.835,0.87375,0.825,0.79875,0.80875,0.4957467259401658,0.5079778925868076,0.5779126116384317,0.5107451340531717,0.7400322527597752,0.8959485965926809,0.2088720111118344,0.709135572449009
0.619,0.6195,0.6765000000000001,0.602,0.71025,0.5305,0.91925,0.84,0.87375,0.82475,0.8007500000000001,0.8072499999999999,0.49244663382594417,0.5100044054627738,0.5780447755216469,0.5042957502091036,0.7852585598595612,0.8560744392742908,0.2800643926538365,0.6607522345180555
0.623,0.624,0.6805,0.60525,0.7142499999999999,0.5347500000000001,0.92475,0.845,0.87375,0.8245,0.8027500000000001,0.8057500000000001,0.49205414714245665,0.5097040330009212,0.5755176418759261,0.49613036955846535,0.8067603439910109,0.8320188261056276,0.31802812018668664,0.6299676845478729
0.627,0.6285000000000001,0.6845,0.6085,0.71825,0.539,0.93025,0.85,0.87375,0.8242499999999999,0.80475,0.80425,0.48288677960671234,0.5124514397853338,0.5749128919860627,0.4928941608007622,0.8141540998940692,0.8320188261056276,0.31802812018668664,0.6299676845478729
0.631,0.633,0.6884999999999999,0.61175,0.72225,0.54325,0.9357500000000001,0.855,0.87375,0.8240000000000001,0.80675,0.8027500000000001,0.4816532500300372,0.5169009571869118,0.5709960350835035,0.5055741095568417,0.8072555581980301,0.8115900464457819,0.3562698224721765,0.5945815920455645
0.635,0.6375,0.6925,0.615,0.72625,0.5475,0.94125,0.86,0.87375,0.82375,0.80875,0.80125,0.4767511714526012,0.5153069806560134,0.5613480716087949,0.5429920527781681,0.7771622701359348,0.750136175691567,0.433866030910418,0.5177051141614405
0.635,0.6375,0.6925,0.615,0.72625,0.5475,0.94125,0.86,0.87375,0.82375,0.80875,0.80125,0.4752212743802315,0.513248428050783,0.5478032760623173,0.5894391323905022,0.7294368273482053,0.4055205899227191,0.5612501385106797,0.15233073539883824
0.635,0.6375,0.6925,0.615,0.72625,0.5475,0.94125,0.86,0.87375,0.82375,0.80875,0.80125,0.4740998838559814,0.5084745083904041,0.5345268132484281,0.6387999528742425,0.6692732906593546,0.4055205899227191,0.5612501385106797,0.15233073539883824
0.635,0.6375,0.6925,0.615,0.72625,0.5475,0.94125,0.86,0.87375,0.82375,0.80875,0.80125,0.48070807801674076,0.5026432776643037,0.5204333373382994,0.6859380391142851,0.6150869488130134,0.38138006045118644,0.5475448495344989,0.1252317621419384
0.6367499999999999,0.639,0.693,0.61725,0.72675,0.5505,0.94125,0.8597499999999999,0.8740000000000001,0.8242499999999999,0.809,0.8009999999999999,0.48114061436180866,0.48879009972365733,0.5100404501581962,0.7051479913203357,0.5455602906509391,0.33816326023490295,0.507284744765683,0.06314374300897498
0.6385000000000001,0.6405,0.6934999999999999,0.6195,0.72725,0.5535,0.94125,0.8595,0.87425,0.82475,0.80925,0.8007500000000001,0.48432456245744726,0.4812046938203372,0.5052224758700788,0.689634919947815,0.4770240709899062,0.33816326023490295,0.507284744765683,0.06314374300897498
0.6402500000000001,0.642,0.6940000000000001,0.62175,0.72775,0.5565,0.94125,0.85925,0.8745,0.82525,0.8095,0.8005,0.4850014017381553,0.47421602787456446,0.5035964596099163,0.6537256727425778,0.41448808056322134,0.33816326023490295,0.507284744765683,0.06314374300897498
0.642,0.6435,0.6945,0.624,0.7282500000000001,0.5595,0.94125,0.8590000000000001,0.8747499999999999,0.82575,0.80975,0.80025,0.4824262084985382,0.47207737594617327,0.5038327526132405,0.6015777974804165,0.36216745528777416,0.331700592130266,0.5008529019804927,0.04864097472545253
0.64375,0.645,0.695,0.62625,0.72875,0.5625,0.94125,0.85875,0.875,0.82625,0.81,0.8,0.48000720893908444,0.47095198045576514,0.5031679282310064,0.5428768870332902,0.3131751721044451,0.3379043117511537,0.5030784993143647,0.020229936196612307
0.64375,0.645,0.695,0.62625,0.72875,0.5625,0.94125,0.85875,0.875,0.82625,0.81,0.8,0.47756818454884054,0.47557371140213867,0.5006968641114983,0.4922722562227874,0.29177703769276697,0.3295983920380773,0.5008419882299151,0.016530531768387768
0.64375,0.645,0.695,0.62625,0.72875,0.5625,0.94125,0.85875,0.875,0.82625,0.81,0.8,0.4754495574512395,0.4811366093956506,0.49909487764828386,0.4497293556226511,0.2933202828649256,0.3295983920380773,0.5008419882299151,0.016530531768387768
0.644,0.6455,0.695,0.6267499999999999,0.72925,0.5635,0.9415,0.86,0.8747499999999999,0.82575,0.81025,0.80025,0.4751051303616484,0.4878849773719412,0.49477351916376305,0.41961303677121836,0.3133133741324745,0.3224181595061721,0.5002780683585054,0.005212507833971918
0.64425,0.6459999999999999,0.695,0.62725,0.7297499999999999,0.5645,0.94175,0.86125,0.8745,0.82525,0.8105,0.8005,0.475169209820177,0.49284713044174777,0.4909928311105771,0.404134515545455,0.33537947996946,0.31697102015266204,0.4955329720733971,0.0038116995291967632
0.6445000000000001,0.6465000000000001,0.695,0.62775,0.7302500000000001,0.5655,0.9420000000000001,0.8625,0.87425,0.82475,0.8107500000000001,0.8007500000000001,0.4747126436781609,0.49777724378229005,0.48763266450398496,0.39781181635337204,0.36458597492728423,0.31697102015266204,0.4955329720733971,0.0038116995291967632
0.6447499999999999,0.647,0.695,0.62825,0.73075,0.5665,0.9422499999999999,0.86375,0.8740000000000001,0.8242499999999999,0.8109999999999999,0.8009999999999999,0.47362729784933316,0.5024710641195081,0.48534983379390445,0.40254520303061986,0.4000000018012505,0.3158843443439671,0.4952532257430747,0.004513032493755574
0.645,0.6475,0.695,0.62875,0.73125,0.5675,0.9425,0.865,0.87375,0.82375,0.81125,0.80125,0.4728503344146742,0.5062076975449558,0.48418839360807403,0.41782793985125877,0.439203041672349,0.3162442747393151,0.49413806786163167,0.004314455997114067
0.645,0.6475,0.695,0.62875,0.73125,0.5675,0.9425,0.865,0.87375,0.82375,0.81125,0.80125,0.4750210260723297,0.5039569065641395,0.48705194441106975,0.4430381205711572,0.4801681447920688,0.3173194731985035,0.49581301655573656,0.0045132274999919305
0.645,0.64775,0.69525,0.62925,0.73175,0.56775,0.9422499999999999,0.86425,0.8734999999999999,0.82375,0.8115000000000001,0.8009999999999999,0.4771917177299852,0.5017061155833233,0.48991549521406547,0.46824830129105566,0.5211332479117886,0.3162419783758872,0.4946969746188942,0.0062198682639548935
0.645,0.648,0.6955,0.62975,0.73225,0.568,0.9420000000000001,0.8634999999999999,0.8732500000000001,0.82375,0.81175,0.8007500000000001,0.4800913132284032,0.4965597340702471,0.49424085866474426,0.48480939768458897,0.5471380848891046,0.3155244184162521,0.49609217351579277,0.00411444164604797
0.645,0.64825,0.69575,0.63025,0.73275,0.56825,0.94175,0.86275,0.873,0.82375,0.812,0.8005,0.48214185590131764,0.49116103968921465,0.49784532820697663,0.4808476335934205,0.5572728307496579,0.31660650149809116,0.496931415973644,0.004813349695394905
0.645,0.6485,0.696,0.63075,0.7332500000000001,0.5685,0.9415,0.862,0.87275,0.82375,0.8122499999999999,0.80025,0.48349152949657576,0.4866634626937402,0.5005326604990188,0.4679603827409534,0.560290221520961,0.31660650149809116,0.496931415973644,0.004813349695394905
0.645,0.64875,0.69625,0.63125,0.73375,0.56875,0.94125,0.86125,0.8725,0.82375,0.8125,0.8,0.4823340942769034,0.4864031398934679,0.5004045015819616,0.4455257403240568,0.5535414026513716,0.31659961687544047,0.4960930575711921,0.004713762922916869
0.645,0.64875,0.69625,0.63125,0.73375,0.56875,0.94125,0.86125,0.8725,0.82375,0.8125,0.8,0.4809003163923265,0.48662741799831793,0.49963554807961874,0.4227225620477492,0.551859956892184,0.31587745972131637,0.4958147846665354,0.005218719542364529
0.645,0.64875,0.69625,0.63125,0.73375,0.56875,0.94125,0.86125,0.8725,0.82375,0.8125,0.8,0.4788738035163603,0.4896191277183708,0.4975689855420722,0.40618449860505396,0.5626972254055522,0.31587745972131637,0.49581419529626913,0.0047147126286134254
0.6452500000000001,0.64875,0.6965,0.63125,0.73425,0.56875,0.94125,0.861,0.87275,0.82375,0.8122499999999999,0.8,0.5060715286955825,0.5030878289078458,0.4922624053826745,0.40502130576772527,0.5857307382337416,0.31515989529404814,0.4966525536987209,0.003610638602453059
0.6455,0.64875,0.69675,0.63125,0.7347499999999999,0.56875,0.94125,0.86075,0.873,0.82375,0.812,0.8,0.5423685369858625,0.5063358564620128,0.509459730065281,0.4071403891208387,0.5320165826870831,0.3176771072304237,0.49525617259440596,0.005216623225323663
0.64575,0.64875,0.6970000000000001,0.63125,0.7352500000000001,0.56875,0.94125,0.8604999999999999,0.8732500000000001,0.82375,0.81175,0.8,0.5475830029236253,0.5106572149465337,0.5295966999078858,0.4363814349459204,0.4578141159018547,0.3151438296853188,0.4946975639891605,0.0047134412892543024
0.6459999999999999,0.64875,0.6972499999999999,0.63125,0.73575,0.56875,0.94125,0.8602500000000001,0.8734999999999999,0.82375,0.8115000000000001,0.8,0.5523529176178461,0.5098562217149265,0.5195802795466379,0.4693078422471122,0.36901992027463393,0.3151438296853188,0.4946975639891605,0.0047134412892543024
0.64625,0.64875,0.6975,0.63125,0.73625,0.56875,0.94125,0.86,0.87375,0.82375,0.81125,0.8,0.5570347230565902,0.5133085025431535,0.5618607072770235,0.49396521917789427,0.2625705355299406,0.31550835280752276,0.49581625809220103,0.004313115645807658
0.64625,0.64875,0.6975,0.63125,0.73625,0.56875,0.94125,0.86,0.87375,0.82375,0.81125,0.8,0.5380631983659738,0.5005566902959669,0.5846890143778285,0.5177358058864061,0.1589657893817636,0.31804851497527836,0.497212639196516,0.005516450378823572
0.64625,0.64875,0.6975,0.63125,0.73625,0.56875,0.94125,0.86,0.87375,0.82375,0.81125,0.8,0.5063398614281709,0.5019584284512796,0.5865753534382634,0.5308073246685785,0.14349878823392026,0.31804851497527836,0.497212639196516,0.005516450378823572
0.64625,0.64875,0.6975,0.63125,0.73625,0.56875,0.94125,0.86,0.87375,0.82375,0.81125,0.8,0.5032720573511154,0.5000120148984741,0.5968921462613641,0.5152712192644696,0.15227456153527186,0.33290201909586126,0.5829766909398694,0.014496943421916894
0.6417499999999999,0.64425,0.6942499999999999,0.62775,0.731,0.5625,0.9384999999999999,0.8575,0.87375,0.8245,0.8105,0.80375,0.505238495734711,0.5023629300332412,0.6244222836317033,0.4987216397066054,0.20214211918595232,0.3390823998012868,0.38131279259156853,0.06113038655952641
0.63725,0.63975,0.691,0.62425,0.72575,0.55625,0.9357500000000001,0.855,0.87375,0.82525,0.80975,0.8075,0.5062117025111138,0.4993992550762946,0.5972405783171132,0.48923183196027126,0.2839226105244446,0.32714046112568107,0.3899840933125396,0.07510731419533391
0.63275,0.63525,0.6877500000000001,0.62075,0.7204999999999999,0.55,0.9329999999999999,0.8525,0.87375,0.826,0.809,0.81125,0.5018863390604349,0.5014057431214706,0.5914614121510673,0.4816192556391246,0.3603478116434333,0.32714046112568107,0.3899840933125396,0.07510731419533391
0.62825,0.63075,0.6845,0.61725,0.71525,0.54375,0.93025,0.85,0.87375,0.82675,0.80825,0.815,0.49995995033841967,0.49795746725940165,0.5816692698946694,0.48543130222879033,0.43080732809095457,0.3952887941941284,0.4713193672595705,0.13075331370662677
0.62375,0.62625,0.68125,0.61375,0.71,0.5375,0.9275,0.8475,0.87375,0.8275,0.8075,0.81875,0.5002563178341143,0.4978293083423445,0.5588449677600225,0.48991132077288074,0.49742024736299806,0.42734548259699184,0.5845158175226728,0.20386869301420357
0.62375,0.62625,0.68125,0.61375,0.71,0.5375,0.9275,0.8475,0.87375,0.8275,0.8075,0.81875,0.49623933677760423,0.4980415715487204,0.5496015058672754,0.49208798785402713,0.5324657380173033,0.7410755878580917,0.7416457856826028,0.7097297659482538
0.62375,0.62625,0.68125,0.61375,0.71,0.5375,0.9275,0.8475,0.87375,0.8275,0.8075,0.81875,0.4929592694941728,0.4979534622932436,0.5427089591092955,0.4958885177881488,0.5431187378804659,0.7637167305078036,0.7587133592232366,0.7704029192327215
0.62375,0.62625,0.68125,0.61375,0.71,0.5375,0.9275,0.8475,0.87375,0.8275,0.8075,0.81875,0.4911450198245825,0.49813769073651326,0.5395210060474989,0.4988598410366502,0.5468501668793775,0.7849433981709312,0.7266060549502071,0.8053650118279798
0.62125,0.6232500000000001,0.67925,0.61,0.7084999999999999,0.534,0.92525,0.84425,0.873,0.826,0.8057500000000001,0.8165,0.49176578957907807,0.4991990067683928,0.5427530137370339,0.4995738799735013,0.5474490380111704,0.8122728035433475,0.6224190479311331,0.8189172190466819
0.61875,0.62025,0.6772499999999999,0.60625,0.7070000000000001,0.5305,0.9229999999999999,0.841,0.87225,0.8245,0.804,0.8142499999999999,0.49321158236212903,0.4985021426568946,0.5528014738275462,0.5021075664386396,0.5631924432150726,0.8479127213556963,0.48051473948818424,0.8174211869173984
0.61625,0.61725,0.67525,0.6025,0.7055,0.527,0.9207500000000001,0.8377500000000001,0.8715,0.823,0.8022499999999999,0.812,0.49437302254795945,0.4984540830629981,0.5625335415915735,0.5067833695679795,0.5891742458005501,0.8745727546593994,0.3550845884660751,0.8098349530085969
0.61375,0.61425,0.67325,0.59875,0.7040000000000001,0.5235,0.9185,0.8345,0.87075,0.8215,0.8005,0.80975,0.4960711281989667,0.4995874884857223,0.5730265529256278,0.5096280084234256,0.6311758576459886,0.8745727546593994,0.3550845884660751,0.8098349530085969
0.61125,0.61125,0.67125,0.595,0.7025,0.52,0.91625,0.83125,0.87,0.82,0.79875,0.8075,0.4978373182746606,0.5013496735952582,0.5798590251912371,0.5087066678742731,0.6841529400328248,0.941272189628009,0.1142633872561132,0.7810971410099599
0.61125,0.61125,0.67125,0.595,0.7025,0.52,0.91625,0.83125,0.87,0.82,0.79875,0.8075,0.49767711962833916,0.503336136809644,0.5850815010613161,0.5053322581692908,0.7397673608561341,0.9452451842868729,0.08240898869810388,0.7740405282106826
0.61125,0.61125,0.67125,0.595,0.7025,0.52,0.91625,0.83125,0.87,0.82,0.79875,0.8075,0.4971244342985302,0.5065200849052826,0.5856622211542313,0.49634918795014693,0.7844063118585458,0.9452451842868729,0.08240898869810388,0.7740405282106826
0.61575,0.616,0.6759999999999999,0.59925,0.7070000000000001,0.5255,0.9209999999999999,0.83625,0.8702500000000001,0.82025,0.8009999999999999,0.8065000000000001,0.49461732548359966,0.509459730065281,0.5852336897753214,0.4838765402997673,0.820062190120063,0.8532500820279778,0.2973969678674845,0.6548863076381904
0.62025,0.62075,0.6807500000000001,0.6035,0.7115,0.531,0.9257500000000001,0.84125,0.8704999999999999,0.8205,0.80325,0.8055,0.4930593936481237,0.5109615923745444,0.5839120509431696,0.47262466894456173,0.8412875730774547,0.49520043960080334,0.5730715192982948,0.2759068838307525
0.62475,0.6255,0.6855,0.60775,0.716,0.5365,0.9305,0.84625,0.87075,0.82075,0.8055,0.8045,0.4892867155272538,0.5133445472385758,0.5834594897673114,0.4678567315801815,0.8487734665478668,0.49520043960080334,0.5730715192982948,0.2759068838307525
0.62925,0.63025,0.69025,0.612,0.7204999999999999,0.542,0.93525,0.85125,0.871,0.821,0.8077500000000001,0.8035,0.4834715046657856,0.5171372501902359,0.577391966037887,0.4842335600440093,0.8413336389791307,0.4530335957165334,0.5833779515515591,0.23782376580725537
0.63375,0.635,0.695,0.61625,0.725,0.5475,0.94,0.85625,0.87125,0.82125,0.81,0.8025,0.4810404902078578,0.5123673354960151,0.5605270535463975,0.5399861821748477,0.7915697324892221,0.3867262178930976,0.5682459011672797,0.1695591957534312
0.6355,0.6367499999999999,0.695,0.6175,0.7254999999999999,0.55025,0.93975,0.8565,0.87275,0.82175,0.80975,0.802,0.4814089470943971,0.5030157395170011,0.547110416916977,0.583289187444644,0.708752735307012,0.35788365645355896,0.5601249509340586,0.14137102022844203
0.63725,0.6385000000000001,0.695,0.61875,0.726,0.5529999999999999,0.9395,0.85675,0.87425,0.8222499999999999,0.8095,0.8015000000000001,0.48311506267772036,0.4921342464656174,0.530850254315351,0.6089024548912108,0.6117586103233963,0.3395134727865699,0.5520081332264691,0.11448363950132354
0.639,0.6402500000000001,0.695,0.62,0.7265,0.5557500000000001,0.9392499999999999,0.857,0.87575,0.8227500000000001,0.80925,0.8009999999999999,0.4849132924826785,0.4803035764347791,0.5175057070767752,0.6150639198249265,0.5127144979571802,0.31504744050057576,0.5287987910781627,0.07070794881071353
0.64075,0.642,0.695,0.62125,0.727,0.5585,0.9390000000000001,0.85725,0.87725,0.82325,0.809,0.8005,0.4895790780567904,0.4684528815731507,0.508466498458088,0.5914430508993629,0.41933663271515953,0.30604461022818324,0.5069999853212134,0.05361178056023945
0.6425,0.64375,0.695,0.6225,0.7275,0.56125,0.93875,0.8575,0.87875,0.82375,0.80875,0.8,0.49146541711722536,0.4666506468020345,0.5082302054547639,0.5244040076268118,0.3639064819830564,0.30604461022818324,0.5069999853212134,0.05361178056023945
0.6425,0.64375,0.695,0.6225,0.7275,0.56125,0.93875,0.8575,0.87875,0.82375,0.80875,0.8,0.4926308622692138,0.47035123553205976,0.5053346149225039,0.46820223430862934,0.33999769612851605,0.3162029670034109,0.5089520247125586,0.03891853740280426
0.6425,0.64375,0.695,0.6225,0.7275,0.56125,0.93875,0.8575,0.87875,0.82375,0.80875,0.8,0.4909447715166807,0.47830109335576115,0.5053786695502424,0.4294713807372135,0.3310031069122024,0.30830746194003233,0.5187219670799817,0.02171789266178914
0.643,0.644,0.6955,0.62275,0.728,0.56225,0.9390000000000001,0.8582500000000001,0.8785,0.8240000000000001,0.809,0.8005,0.49069646361488245,0.48526973447074373,0.5034843205574913,0.40666820210065585,0.32888402355908897,0.3159027063161244,0.4966498980656388,0.003310401176092235
0.6435,0.64425,0.696,0.623,0.7284999999999999,0.56325,0.9392499999999999,0.8590000000000001,0.87825,0.8242499999999999,0.80925,0.8009999999999999,0.4899635548079619,0.49232247987504507,0.5004245264127518,0.4006794893417268,0.3306806398364684,0.3159027063161244,0.4966498980656388,0.003310401176092235
