C0,C1,C2,C3,C4,C5,C6,C7,C8,C9,C10,C11,Ax,Ay,Az,Gr,Gp,Fx_norm,Fy_norm,Fz_norm
0.63875,0.635,0.6875,0.62375,0.7075,0.54125,0.8975,0.805,0.835,0.7575,0.78,0.66875,0.4743454577402917,0.49986821296784395,0.7691091196626252,0.5005461225231987,0.4985602224388398,0.18090258048366442,0.7496210092939855,0.0046151242214288795
0.63875,0.635,0.6875,0.62375,0.7075,0.54125,0.8975,0.805,0.835,0.7575,0.78,0.66875,0.4745651027938851,0.499934106483922,0.7692738534528203,0.5003723562658173,0.4984733393101491,0.18090258048366442,0.7496210092939855,0.0046151242214288795
0.63875,0.635,0.6875,0.62375,0.7075,0.54125,0.8975,0.805,0.835,0.7575,0.78,0.66875,0.47477596204533473,0.4999209277807064,0.7693726937269373,0.5004468275189807,0.49839142093166927,0.17644004542346958,0.750245207893787,0.005665115602198368
0.63875,0.635,0.6875,0.62375,0.7075,0.54125,0.8975,0.805,0.835,0.7575,0.78,0.66875,0.474169741697417,0.4999472851871376,0.7691881918819188,0.5003276735139193,0.4983318439291385,0.17867603805341692,0.7533602522396041,0.006091948091378067
0.639,0.635,0.6872499999999999,0.62375,0.7075,0.54125,0.89725,0.80475,0.835,0.75725,0.78,0.6685,0.4746441750131787,0.5,0.7694781233526621,0.5003574620151846,0.49824247842534236,0.18015252144289837,0.7477504015360242,0.00461054257945526
0.63925,0.635,0.687,0.62375,0.7075,0.54125,0.897,0.8045,0.835,0.757,0.78,0.66825,0.4746441750131787,0.5004480759093305,0.769715340010543,0.5003574620151846,0.49827226692660775,0.18015252144289837,0.7477504015360242,0.00461054257945526
0.6395000000000001,0.635,0.68675,0.62375,0.7075,0.54125,0.8967499999999999,0.80425,0.835,0.7567499999999999,0.78,0.6679999999999999,0.47411702688455454,0.5002635740643121,0.7695044807590933,0.5003872505164499,0.4983616324304039,0.17792126310560222,0.754606011609899,0.004609040510235142
0.63975,0.635,0.6865000000000001,0.62375,0.7075,0.54125,0.8965000000000001,0.804,0.835,0.7565000000000001,0.78,0.6677500000000001,0.4738798102266737,0.5004217185028993,0.7696626251976806,0.5004468275189807,0.4983616324304039,0.1779070969988537,0.7489987910000575,0.0037782731544718034
0.64,0.635,0.68625,0.62375,0.7075,0.54125,0.89625,0.80375,0.835,0.75625,0.7797499999999999,0.6675,0.4741433842909858,0.5003162888771745,0.769715340010543,0.500536193022777,0.4983020554278731,0.180888414376916,0.7502445503703525,0.006303362679848589
0.64,0.635,0.68625,0.62375,0.7075,0.54125,0.89625,0.80375,0.835,0.75625,0.7795000000000001,0.6675,0.4739588824459673,0.5005535055350554,0.7692936215076436,0.5004468275189807,0.4983020554278731,0.18238851407284573,0.7539844508394057,0.0037702321213603906
0.64,0.635,0.68625,0.62375,0.7075,0.54125,0.89625,0.80375,0.835,0.75625,0.77925,0.6675,0.4738534528202425,0.5003162888771745,0.7693726937269373,0.5002978850126538,0.4981233244202808,0.18238851407284573,0.7539844508394057,0.0037702321213603906
0.64,0.635,0.68625,0.62375,0.7075,0.54125,0.89625,0.80375,0.835,0.75625,0.779,0.6675,0.4742224565102794,0.5004744333157617,0.7696626251976806,0.5001787310075924,0.49806374741775006,0.1779354292123507,0.7489994485234921,0.003982755726576699
0.64,0.635,0.68625,0.62375,0.7075,0.54125,0.89625,0.80375,0.835,0.75625,0.77875,0.6675,0.4742224565102794,0.5003426462836057,0.769583552978387,0.4998510574936731,0.4981233244202808,0.1779354292123507,0.7489994485234921,0.003982755726576699
0.64,0.635,0.68625,0.62375,0.7075,0.54125,0.89625,0.80375,0.835,0.75625,0.77875,0.6675,0.4745387453874539,0.5003953610964681,0.7696099103848182,0.4997319034886115,0.49800417044433803,0.1771712040648361,0.7489987910000575,0.005040362002758134
0.64,0.635,0.68625,0.62375,0.7075,0.54125,0.89625,0.80375,0.835,0.75625,0.77875,0.6675,0.4745123879810227,0.5002899314707433,0.7695571955719558,0.4997319034886115,0.49797438194307264,0.1771712040648361,0.7490001060469267,0.004615546388901313
0.63975,0.635,0.6865000000000001,0.62375,0.7075,0.54125,0.89625,0.80375,0.835,0.75625,0.77875,0.6672499999999999,0.4745914602003163,0.5001845018450185,0.7695044807590933,0.4998510574936731,0.49797438194307264,0.17866186275386717,0.7490014210937959,0.0033599925342792537
0.6395000000000001,0.635,0.68675,0.62375,0.7075,0.54125,0.89625,0.80375,0.835,0.75625,0.77875,0.667,0.47435424354243544,0.5003690036900369,0.76921454928835,0.4999404229974692,0.49809353594813416,0.17866186275386717,0.7490014210937959,0.0033599925342792537
0.63925,0.635,0.687,0.62375,0.7075,0.54125,0.89625,0.80375,0.835,0.75625,0.77875,0.66675,0.474169741697417,0.5005535055350554,0.7691618344754876,0.5002085195088577,0.49812332444939955,0.17494938673443847,0.7527367188988071,0.004195720026991494
0.639,0.635,0.6872499999999999,0.62375,0.7075,0.54125,0.89625,0.80375,0.835,0.75625,0.77875,0.6665000000000001,0.47361623616236165,0.5008170795993674,0.769082762256194,0.5004170390177154,0.49842120943293466,0.18013835533614986,0.7533602522396041,0.004404287962693322
0.63875,0.635,0.6875,0.62375,0.7075,0.54125,0.89625,0.80375,0.835,0.75625,0.77875,0.66625,0.47337901950448075,0.5006852925672114,0.7691354770690564,0.5005659815240423,0.4985105749367308,0.17942136280153184,0.7552334978268734,0.0056629584455210194
0.63875,0.63475,0.6872499999999999,0.62375,0.7075,0.54125,0.8959999999999999,0.80375,0.835,0.75625,0.7785,0.66625,0.47327358987875595,0.5010806536636795,0.7691618344754876,0.500536193022777,0.49859994044052697,0.17867131295356697,0.748374592400256,0.004404960254467616
0.63875,0.6345000000000001,0.687,0.62375,0.7075,0.54125,0.89575,0.80375,0.835,0.75625,0.77825,0.66625,0.47340537691091195,0.5011597258829731,0.7693199789140748,0.5006255585265731,0.4984807864354654,0.1771712040648361,0.7502445503703525,0.005245739199350092
0.63875,0.63425,0.68675,0.62375,0.7075,0.54125,0.8955,0.80375,0.835,0.75625,0.778,0.66625,0.4732472324723247,0.5009488666315235,0.7689773326304692,0.5007149240303692,0.4984807864354654,0.17717592916468602,0.7483765727061296,0.0064998095124781064
0.63875,0.634,0.6865000000000001,0.62375,0.7075,0.54125,0.8952500000000001,0.80375,0.835,0.75625,0.77775,0.66625,0.47332630469161835,0.5008697944122298,0.7691354770690564,0.5006851355291039,0.49845099793420006,0.18089785538381453,0.7502432275879134,0.003778287711970854
0.63875,0.63375,0.68625,0.62375,0.7075,0.54125,0.895,0.80375,0.835,0.75625,0.7775,0.66625,0.4731945176594623,0.5007380073800738,0.7693990511333685,0.5006553470278384,0.49862972894179236,0.18089313028396461,0.7539831357925365,0.0037815380044859278
0.63875,0.63375,0.68625,0.62375,0.7075,0.54125,0.895,0.80375,0.83525,0.7559999999999999,0.7775,0.6659999999999999,0.4728255139694254,0.500764364786505,0.7692936215076436,0.5007149240303692,0.4987190944455885,0.17791653800575227,0.7502432275879134,0.0054565145812714355
0.63875,0.63375,0.68625,0.62375,0.7075,0.54125,0.895,0.80375,0.8355,0.75575,0.7775,0.6657500000000001,0.4728782287822878,0.5005007907221929,0.76921454928835,0.5007745010329,0.49877867144811927,0.17791653800575227,0.7502432275879134,0.0054565145812714355
0.63875,0.63375,0.68625,0.62375,0.7075,0.54125,0.895,0.80375,0.83575,0.7555,0.7775,0.6655,0.4732208750658935,0.5009488666315235,0.7694517659462309,0.5007149240303692,0.4986893059443231,0.17867131295356697,0.7521138430814445,0.005669697244171987
0.63875,0.63375,0.68625,0.62375,0.7075,0.54125,0.895,0.80375,0.836,0.7552500000000001,0.7775,0.66525,0.4738798102266737,0.5008170795993674,0.7691618344754876,0.5006851355291039,0.4986893059443231,0.18311967271421217,0.7558530860270631,0.0046157634279780585
0.63875,0.63375,0.68625,0.62375,0.7075,0.54125,0.895,0.80375,0.83625,0.755,0.7775,0.665,0.4738534528202425,0.5011860832894043,0.7691091196626252,0.5004468275189807,0.4984807864354654,0.17718065426453591,0.7521158156517482,0.003991859457118725
0.63875,0.63375,0.68625,0.62375,0.7075,0.54125,0.8952500000000001,0.80375,0.8365,0.755,0.7775,0.665,0.4745123879810227,0.5011333684765419,0.7691354770690564,0.5004170390177154,0.49842120943293466,0.17868075396046557,0.7483765727061296,0.0035714071227497765
0.63875,0.63375,0.68625,0.62375,0.7075,0.54125,0.8955,0.80375,0.83675,0.755,0.7775,0.665,0.47443331576172904,0.50152872957301,0.7691354770690564,0.5003574620151846,0.4983020554278731,0.17868075396046557,0.7483765727061296,0.0035714071227497765
0.63875,0.63375,0.68625,0.62375,0.7075,0.54125,0.89575,0.80375,0.8370000000000001,0.755,0.7775,0.665,0.4741433842909858,0.5010279388508171,0.769082762256194,0.5002680965113885,0.49839142093166927,0.17718537017158453,0.7539857658862748,0.003778069349485107
0.63875,0.63375,0.68625,0.62375,0.7075,0.54125,0.8959999999999999,0.804,0.8370000000000001,0.755,0.7775,0.665,0.47401159725882974,0.5009225092250923,0.7689773326304692,0.5003276735139193,0.4985701519392616,0.1756994365824033,0.7552308599975653,0.006290304603201094
0.63875,0.63375,0.68625,0.62375,0.7075,0.54125,0.89625,0.80425,0.8370000000000001,0.755,0.7775,0.665,0.4742488139167106,0.5007116499736426,0.7690036900369004,0.5004468275189807,0.4987190944455885,0.1794119217946333,0.7489968184297537,0.003983396256534879
0.63875,0.63375,0.68625,0.62375,0.7075,0.54125,0.89625,0.8045,0.83675,0.755,0.7775,0.665,0.4742224565102794,0.5005535055350554,0.7693990511333685,0.5004468275189807,0.49880845994938466,0.17792126310560222,0.7502445503703525,0.004613825957195448
0.63875,0.63375,0.68625,0.62375,0.7075,0.54125,0.89625,0.80475,0.8365,0.755,0.7775,0.665,0.4746178176067475,0.5004480759093305,0.7694254085397997,0.5003574620151846,0.4988978254531808,0.17939775568788485,0.750245207893787,0.00503255653644954
0.63875,0.63375,0.68625,0.62375,0.7075,0.54125,0.89625,0.805,0.83625,0.755,0.7775,0.665,0.4751713231418028,0.5008170795993674,0.7694517659462309,0.500238308010123,0.4988978254531808,0.18684159893334082,0.7533615672864733,0.006077544107772975
0.63875,0.63375,0.68625,0.62375,0.7075,0.54125,0.89625,0.80525,0.8365,0.755,0.7775,0.665,0.4750131787032156,0.5010806536636795,0.7697416974169742,0.500238308010123,0.4986893059443231,0.17867131295356697,0.7508687412345841,0.003991687413948141
0.63875,0.63375,0.68625,0.62375,0.7075,0.54125,0.89625,0.8055,0.83675,0.755,0.7775,0.665,0.4751713231418028,0.5010806536636795,0.7696099103848182,0.500238308010123,0.4986893059443231,0.17867603805341692,0.7508713713283225,0.004826571895124515
0.63875,0.63375,0.68625,0.62375,0.7075,0.54125,0.89625,0.8057500000000001,0.8370000000000001,0.755,0.7775,0.665,0.47503953610964683,0.5011860832894043,0.7693726937269373,0.500238308010123,0.4987190944455885,0.17942136280153184,0.7546079841802028,0.004613561275394548
0.63875,0.63375,0.68625,0.62375,0.7075,0.54125,0.89575,0.8059999999999999,0.8370000000000001,0.755,0.7775,0.665,0.4751976805482341,0.5009488666315235,0.769847127042699,0.5002978850126538,0.4986595174430577,0.18238851407284573,0.7483752499236906,0.004411717580844647
0.63875,0.63375,0.6865000000000001,0.62375,0.7075,0.54125,0.895,0.80625,0.8370000000000001,0.7552500000000001,0.7775,0.665,0.4749604638903532,0.5008170795993674,0.7699525566684238,0.5004468275189807,0.4985701519392616,0.18238851407284573,0.7483752499236906,0.004411717580844647
0.63875,0.63375,0.68675,0.62375,0.7075,0.54125,0.89425,0.80625,0.83675,0.7555,0.7775,0.665,0.4749077490774908,0.5003690036900369,0.769847127042699,0.5003574620151846,0.4985403634379962,0.18016669674244806,0.7533595947161695,0.004195720026991494
0.63875,0.63375,0.687,0.62375,0.7075,0.54125,0.8935,0.80625,0.8365,0.75575,0.7775,0.665,0.4750131787032156,0.5004744333157617,0.7698734844491302,0.5004766160202462,0.49859994044052697,0.18016669674244806,0.7533595947161695,0.004195720026991494
0.63875,0.63375,0.6872499999999999,0.62375,0.7075,0.54125,0.89275,0.80625,0.83625,0.7559999999999999,0.7775,0.665,0.4750131787032156,0.5003690036900369,0.769583552978387,0.5003872505164499,0.49845099793420006,0.17866658785371706,0.7508687412345841,0.005033623204107176
0.63875,0.63375,0.6875,0.62375,0.7075,0.54125,0.8925,0.80625,0.83625,0.75625,0.7775,0.665,0.4749077490774908,0.5005007907221929,0.7690036900369004,0.5004468275189807,0.4985403634379962,0.17495411183428838,0.7502471804640908,0.00294598123153525
0.63875,0.63375,0.6875,0.62375,0.7075,0.54125,0.8925,0.80625,0.83625,0.75625,0.7775,0.665,0.4748550342646284,0.5002108592514497,0.7690036900369004,0.5003872505164499,0.4986595174430577,0.17495411183428838,0.7502471804640908,0.00294598123153525
0.63875,0.63375,0.6875,0.62375,0.7075,0.54125,0.8925,0.80625,0.83625,0.75625,0.7775,0.665,0.4745651027938851,0.5003162888771745,0.7689773326304692,0.5004468275189807,0.4985701519392616,0.17719954547113426,0.7477536891531973,0.005661423291075787
0.63875,0.63375,0.6875,0.62375,0.7075,0.54125,0.8925,0.80625,0.83625,0.75625,0.7775,0.665,0.47403795466526094,0.5000527148128624,0.768950975224038,0.5003872505164499,0.4985403634379962,0.17719954547113426,0.7477536891531973,0.005661423291075787
0.63875,0.63375,0.6875,0.62375,0.7075,0.54125,0.89275,0.80625,0.8365,0.75625,0.7775,0.665,0.47401159725882974,0.49984185556141275,0.769346336320506,0.5004766160202462,0.49862972894179236,0.17942136280153184,0.7527400065159799,0.004610983274653767
0.63875,0.63375,0.6875,0.62375,0.7075,0.54125,0.893,0.80625,0.83675,0.75625,0.7775,0.665,0.47377438060094884,0.4996573537163943,0.7696889826041118,0.500536193022777,0.4986595174430577,0.1794119217946333,0.7496216668174202,0.004197236653710663
0.63875,0.63375,0.6875,0.62375,0.7075,0.54125,0.89325,0.80625,0.8370000000000001,0.75625,0.7775,0.665,0.4738798102266737,0.49978914074855035,0.7695308381655246,0.5005957700253076,0.4987190944455885,0.17865714684681858,0.7546086417036374,0.0037871532288920686
0.63875,0.63375,0.6875,0.62375,0.7075,0.54125,0.8935,0.80625,0.8372499999999999,0.75625,0.7775,0.665,0.4741433842909858,0.5001581444385872,0.7696626251976806,0.5004468275189807,0.4988978254531808,0.1794024715949335,0.7552315175209998,0.004406913606158268
0.63875,0.63375,0.6875,0.62375,0.7075,0.54125,0.89375,0.80625,0.8375,0.75625,0.7775,0.665,0.47467053241960994,0.5004480759093305,0.7693990511333685,0.5004468275189807,0.49883824845065,0.17718065426453591,0.7502445503703525,0.0041992072097183876
0.63875,0.63375,0.6875,0.62375,0.7075,0.54125,0.89375,0.80625,0.8375,0.75625,0.7775,0.665,0.4745651027938851,0.5008434370057986,0.7692936215076436,0.5004766160202462,0.49877867144811927,0.17865714684681858,0.7508680837111495,0.0037821639769450564
0.63875,0.63375,0.6875,0.62375,0.7075,0.54125,0.89375,0.80625,0.8375,0.75625,0.7775,0.665,0.47469688982604114,0.5006852925672114,0.7691618344754876,0.5004468275189807,0.49862972894179236,0.17792126310560222,0.7533615672864733,0.004197032848723977
0.63875,0.63375,0.6875,0.62375,0.7075,0.54125,0.89375,0.80625,0.8375,0.75625,0.7775,0.665,0.47467053241960994,0.5010542962572483,0.7689773326304692,0.5003574620151846,0.4987190944455885,0.1749399457275399,0.7496223243408546,0.0027302205678939174
0.63875,0.63375,0.6875,0.62375,0.7075,0.54125,0.8935,0.80625,0.8372499999999999,0.75625,0.7775,0.665,0.47480231945176593,0.5010542962572483,0.7687664733790196,0.5004170390177154,0.49880845994938466,0.17941663770168192,0.7489994485234921,0.003146776786153589
0.63875,0.63375,0.6875,0.62375,0.7075,0.54125,0.89325,0.80625,0.8370000000000001,0.75625,0.7775,0.665,0.4746178176067475,0.5007116499736426,0.7690036900369004,0.5003276735139193,0.49883824845065,0.17569471148255342,0.7552308599975653,0.003983396256534879
0.63875,0.63375,0.6875,0.62375,0.7075,0.54125,0.893,0.80625,0.83675,0.75625,0.7775,0.665,0.47469688982604114,0.5006589351607802,0.7689773326304692,0.5003276735139193,0.49880845994938466,0.17421350299322205,0.7539851083628403,0.0037782691842447908
0.63875,0.63375,0.6875,0.62375,0.7075,0.54125,0.89275,0.80625,0.8365,0.75625,0.7775,0.665,0.4745123879810227,0.5009225092250923,0.7690564048497628,0.5004170390177154,0.4989276139544462,0.17569471148255342,0.7508680837111495,0.005452809036058805
0.63875,0.63375,0.6875,0.62375,0.7075,0.54125,0.89275,0.8059999999999999,0.836,0.75625,0.7775,0.66525,0.47432788613600424,0.5003953610964681,0.7692936215076436,0.5004468275189807,0.4988680369519154,0.17569471148255342,0.7508680837111495,0.005452809036058805
0.63875,0.63375,0.6875,0.62375,0.7075,0.54125,0.893,0.8057500000000001,0.83575,0.75625,0.7775,0.6655,0.47443331576172904,0.5001845018450185,0.7695308381655246,0.500536193022777,0.4986595174430577,0.18015252144289837,0.7502471804640908,0.004420227100743646
0.63875,0.63375,0.6875,0.62375,0.7075,0.54125,0.89325,0.8055,0.8355,0.75625,0.7775,0.6657500000000001,0.47432788613600424,0.5003162888771745,0.7694517659462309,0.5005064045215115,0.4985701519392616,0.18015252144289837,0.7502471804640908,0.004420227100743646
0.63875,0.63375,0.6875,0.62375,0.7075,0.54125,0.8935,0.80525,0.83525,0.75625,0.7775,0.6659999999999999,0.47409066947812334,0.5004217185028993,0.7690564048497628,0.5004170390177154,0.4984807864354654,0.18164318013192948,0.7489974759531884,0.005242674184095642
0.63875,0.63375,0.6875,0.62375,0.7075,0.54125,0.89375,0.80475,0.835,0.7559999999999999,0.77725,0.6659999999999999,0.4741433842909858,0.5006589351607802,0.7687137585661571,0.5002680965113885,0.4983318439291385,0.17571360268915176,0.7502458654172216,0.004827429464159442
0.63875,0.63375,0.6875,0.62375,0.7075,0.54125,0.89375,0.8045,0.835,0.75575,0.777,0.6657500000000001,0.47409066947812334,0.5012915129151292,0.7686083289404323,0.5002085195088577,0.49824247842534236,0.17571360268915176,0.7502458654172216,0.004827429464159442
0.63875,0.63375,0.6875,0.62375,0.7075,0.54125,0.89375,0.80425,0.835,0.7555,0.7767499999999999,0.6655,0.4738270954138113,0.501396942540854,0.7686346863468635,0.5001787310075924,0.49827226692660775,0.1816242981181324,0.7521164731751828,0.0037815380044859278
0.63875,0.63375,0.6875,0.62375,0.7075,0.54125,0.89375,0.804,0.835,0.7552500000000001,0.7765000000000001,0.66525,0.4738534528202425,0.5015023721665788,0.7687401159725883,0.5002085195088577,0.49839142093166927,0.17419461178662365,0.746505299689164,0.005874369063764529
0.63875,0.63375,0.6875,0.62375,0.7075,0.54125,0.89375,0.80375,0.835,0.755,0.77625,0.665,0.4742224565102794,0.5012915129151292,0.76921454928835,0.5002978850126538,0.4985701519392616,0.178694920067214,0.7446366645015066,0.003772407805763812
0.63875,0.63375,0.6875,0.62375,0.7075,0.54125,0.89375,0.80375,0.835,0.755,0.77625,0.665,0.47409066947812334,0.5014232999472852,0.769583552978387,0.5004468275189807,0.4986595174430577,0.178694920067214,0.7446366645015066,0.003772407805763812
0.63875,0.63375,0.6875,0.62375,0.7075,0.54125,0.89375,0.80375,0.835,0.755,0.77625,0.665,0.474301528729573,0.5010542962572483,0.7695571955719558,0.5004766160202462,0.49862972894179236,0.17568527047565485,0.7489974759531884,0.0033654039536986893
0.63875,0.63375,0.6875,0.62375,0.7075,0.54125,0.89375,0.804,0.835,0.7552500000000001,0.77625,0.665,0.4742488139167106,0.5011333684765419,0.7696362677912494,0.5003574620151846,0.49859994044052697,0.17568527047565485,0.7489974759531884,0.0033654039536986893
0.63875,0.63375,0.6875,0.62375,0.7075,0.54125,0.89375,0.80425,0.835,0.7555,0.77625,0.665,0.47435424354243544,0.5009488666315235,0.769583552978387,0.5002978850126538,0.4985105749367308,0.17791653800575227,0.7508687412345841,0.00419656436193638
0.63875,0.63375,0.6875,0.62375,0.7075,0.54125,0.89375,0.8045,0.835,0.75575,0.77625,0.665,0.4745387453874539,0.5011333684765419,0.7692672641012124,0.5001489425063269,0.49845099793420006,0.18015252144289837,0.750867426187715,0.003989920662927123
0.63875,0.63375,0.6875,0.62375,0.7075,0.54125,0.89375,0.80475,0.835,0.7559999999999999,0.77625,0.665,0.47482867685819713,0.5011333684765419,0.7691354770690564,0.5,0.49842120943293466,0.17644948643036817,0.7496216668174202,0.00336518162098594
0.63875,0.63375,0.6875,0.62375,0.7075,0.54125,0.89375,0.805,0.835,0.75625,0.77625,0.665,0.47472324723247233,0.5011860832894043,0.7695044807590933,0.5001787310075924,0.49824247842534236,0.1831243978140621,0.7533622248099079,0.003356272431567573
0.63875,0.63375,0.6875,0.62375,0.7075,0.54125,0.89375,0.805,0.835,0.75625,0.77625,0.665,0.47509225092250923,0.5007380073800738,0.7694781233526621,0.5001787310075924,0.49821268992407697,0.17940719669478342,0.7452595480544388,0.004616422485662301
0.63875,0.63375,0.6875,0.62375,0.7075,0.54125,0.89375,0.805,0.835,0.75625,0.77625,0.665,0.47503953610964683,0.5011860832894043,0.769583552978387,0.5003872505164499,0.4981829014228116,0.1831243978140621,0.747752374106328,0.004202899520840968
0.63875,0.63375,0.6875,0.62375,0.7075,0.54125,0.89375,0.805,0.835,0.75625,0.77625,0.665,0.4745123879810227,0.501265155508698,0.7697416974169742,0.5005957700253076,0.4981531129215462,0.17644004542346958,0.7477536891531973,0.004197036818950989
0.63875,0.63375,0.6875,0.62375,0.7075,0.54125,0.8935,0.805,0.835,0.75625,0.77625,0.665,0.47403795466526094,0.5011597258829731,0.7696889826041118,0.5007149240303692,0.4981829014228116,0.1719822354631246,0.748374592400256,0.00523985929314305
0.63875,0.63375,0.6875,0.62375,0.7075,0.54125,0.8935,0.805,0.835,0.75625,0.77625,0.665,0.47403795466526094,0.5012387981022668,0.7696362677912494,0.5005064045215115,0.49842120943293466,0.17866186275386717,0.750867426187715,0.003980566808083238
0.63875,0.63375,0.6875,0.62375,0.7075,0.54125,0.8935,0.805,0.835,0.75625,0.77625,0.665,0.4738798102266737,0.5015814443858724,0.7696362677912494,0.500536193022777,0.4984807864354654,0.18015724654274826,0.7502471804640908,0.004617298582423291
0.63875,0.63375,0.6875,0.62375,0.7075,0.54125,0.8935,0.805,0.835,0.75625,0.77625,0.665,0.4738798102266737,0.5016341591987349,0.7697416974169742,0.5003574620151846,0.4986893059443231,0.1756994365824033,0.7527360613753724,0.004614655734641284
0.639,0.634,0.6877500000000001,0.62375,0.7077500000000001,0.5415,0.89325,0.80525,0.83525,0.7565000000000001,0.77625,0.665,0.4741433842909858,0.5009752240379547,0.7698207696362678,0.5001489425063269,0.4988978254531808,0.18090258048366442,0.7483772302295641,0.005243109585658124
0.63925,0.63425,0.688,0.62375,0.708,0.54175,0.89325,0.8055,0.8355,0.7567499999999999,0.77625,0.665,0.47438060094886664,0.5006589351607802,0.7697680548234054,0.4998510574936731,0.4989276139544462,0.18016197164259817,0.752114500604879,0.004825458908151727
0.6395000000000001,0.6345000000000001,0.68825,0.62375,0.70825,0.542,0.893,0.8057500000000001,0.83575,0.757,0.77625,0.665,0.47445967316816023,0.5003426462836057,0.7696889826041118,0.4997319034886115,0.4989574024557116,0.17421821890027073,0.7496229818642892,0.002307562110714445
0.63975,0.63475,0.6884999999999999,0.62375,0.7084999999999999,0.54225,0.89275,0.8059999999999999,0.836,0.75725,0.77625,0.665,0.4745651027938851,0.5000790722192936,0.7696362677912494,0.4996723264860808,0.4991063449620385,0.17719009527143445,0.7496216668174202,0.0037834767986775395
0.64,0.635,0.68875,0.62375,0.70875,0.5425,0.8925,0.80625,0.83625,0.7575,0.77625,0.665,0.47445967316816023,0.4999472851871376,0.7695044807590933,0.4994638069772231,0.49883824845065,0.18016669674244806,0.7496216668174202,0.004200946169150306
0.64,0.635,0.6884999999999999,0.624,0.70875,0.54275,0.8925,0.8059999999999999,0.83625,0.75825,0.7765000000000001,0.6657500000000001,0.47445967316816023,0.5003162888771745,0.7693726937269373,0.4997616919898769,0.49898719095697697,0.17717592916468602,0.7496216668174202,0.0058748243164620855
0.64,0.635,0.68825,0.62425,0.70875,0.5429999999999999,0.8925,0.8057500000000001,0.83625,0.759,0.7767499999999999,0.6665000000000001,0.47432788613600424,0.5003690036900369,0.7695044807590933,0.5001489425063269,0.4991957104658346,0.1794119217946333,0.7502458654172216,0.004400847099281592
0.64,0.635,0.688,0.6245,0.70875,0.54325,0.8925,0.8055,0.83625,0.7597499999999999,0.777,0.6672499999999999,0.4744860305745915,0.5006852925672114,0.7694781233526621,0.5003872505164499,0.4990765564607731,0.17421350299322205,0.7502458654172216,0.00398557061752929
0.64,0.635,0.6877500000000001,0.62475,0.7084999999999999,0.54325,0.8925,0.80475,0.83575,0.7605,0.77725,0.6679999999999999,0.47445967316816023,0.5007907221929362,0.7695044807590933,0.500536193022777,0.49871909447470725,0.17941663770168192,0.7496210092939855,0.0023101771669073526
0.64,0.635,0.6875,0.625,0.70825,0.54325,0.8925,0.804,0.83525,0.76125,0.7775,0.66875,0.47443331576172904,0.5005798629414866,0.7696099103848182,0.5008936550379616,0.4987488829759726,0.18386973175497834,0.7527373764222416,0.005450179422366847
0.64,0.635,0.6875,0.625,0.708,0.5429999999999999,0.8925,0.8035,0.83475,0.76125,0.7775,0.66875,0.4742751713231418,0.5009488666315235,0.769847127042699,0.5008936550379616,0.49830205545699185,0.17866186275386717,0.7533615672864733,0.006083627818966713
0.6402500000000001,0.635,0.6875,0.625,0.7077500000000001,0.54275,0.89225,0.8029999999999999,0.8340000000000001,0.7609999999999999,0.7775,0.6685,0.47435424354243544,0.5011333684765419,0.769583552978387,0.5006851355291039,0.4977658624633337,0.17569471148255342,0.750245207893787,0.0029301267916612174
0.6402500000000001,0.635,0.6875,0.625,0.7075,0.54225,0.892,0.8025,0.833,0.7602500000000001,0.77725,0.6679999999999999,0.47401159725882974,0.5010542962572483,0.769583552978387,0.5008042895341653,0.49764670845827214,0.18090258048366442,0.7558544010739322,0.0033623667300333383
0.6402500000000001,0.635,0.6875,0.625,0.7075,0.542,0.8917499999999999,0.8025,0.8325,0.7595000000000001,0.777,0.6675,0.4735898787559304,0.5008697944122298,0.7695308381655246,0.5009532320404922,0.49770628543168416,0.1794119217946333,0.7502458654172216,0.0050314488431127645
0.6402500000000001,0.635,0.6875,0.625,0.7075,0.54175,0.8915000000000001,0.8025,0.8320000000000001,0.75875,0.7767499999999999,0.667,0.4738270954138113,0.5011333684765419,0.7691354770690564,0.5009830205417577,0.49734882341649955,0.17643532032361967,0.7483772302295641,0.003985116688240743
0.6402500000000001,0.635,0.6875,0.625,0.7075,0.5415,0.89125,0.8025,0.8315,0.758,0.7765000000000001,0.6665000000000001,0.47403795466526094,0.5008434370057986,0.7691354770690564,0.5008042895341653,0.4968424188658693,0.17942136280153184,0.7502458654172216,0.006078875457231511
0.64,0.635,0.6872499999999999,0.625,0.7075,0.54125,0.89075,0.8029999999999999,0.83175,0.7567499999999999,0.77575,0.66625,0.4741433842909858,0.5003953610964681,0.7689773326304692,0.5013702710290889,0.497110515348139,0.17942608790138173,0.7508687412345841,0.00524442637761761
0.64,0.635,0.687,0.625,0.7075,0.54125,0.8902500000000001,0.8035,0.8322499999999999,0.7559999999999999,0.7752500000000001,0.66625,0.47438060094886664,0.5000790722192936,0.768581971534001,0.5017575215164202,0.49719988085193517,0.1756994365824033,0.7533615672864733,0.006505439294383298
0.64,0.635,0.68675,0.625,0.7075,0.54125,0.8897499999999999,0.804,0.8327500000000001,0.7552500000000001,0.7747499999999999,0.66625,0.4746178176067475,0.5003426462836057,0.7688455455983132,0.5022341375366663,0.49743818886205826,0.17942136280153184,0.7483759151826951,0.0027395558950117295
0.64,0.635,0.6865000000000001,0.625,0.7075,0.54125,0.88925,0.8045,0.83325,0.7545000000000001,0.77425,0.66625,0.4746441750131787,0.5003426462836057,0.769082762256194,0.5028894845645048,0.4976764968721813,0.180888414376916,0.7489974759531884,0.005238987166609074
0.63975,0.6345000000000001,0.6859999999999999,0.62475,0.7070000000000001,0.5405,0.8897499999999999,0.8045,0.8342499999999999,0.753,0.77375,0.66625,0.47474960463890353,0.5005798629414866,0.7688455455983132,0.5034852546189312,0.49797438194307264,0.180888414376916,0.7489974759531884,0.005238987166609074
0.6395000000000001,0.634,0.6857500000000001,0.6245,0.7065,0.5397500000000001,0.89075,0.804,0.83475,0.75225,0.77375,0.66625,0.47480231945176593,0.5011860832894043,0.768950975224038,0.5031873696353961,0.49794459344180725,0.17494466163458858,0.7490001060469267,0.004403898880445994
0.63925,0.6335000000000001,0.6855,0.62425,0.706,0.539,0.8917499999999999,0.8035,0.83525,0.7515000000000001,0.77375,0.66625,0.47472324723247233,0.5016341591987349,0.7691881918819188,0.5028596961505956,0.49791480494054186,0.17644004542346958,0.7483759151826951,0.0031548323767640416
0.639,0.633,0.68525,0.624,0.7055,0.53825,0.89275,0.8029999999999999,0.83575,0.75075,0.77375,0.66625,0.47467053241960994,0.5014760147601476,0.7691354770690564,0.5025915996392072,0.49785522793801107,0.17719009527143445,0.7527393489925454,0.003365385425972626
0.63875,0.6325,0.685,0.62375,0.705,0.5375,0.89375,0.8025,0.83625,0.75,0.77375,0.66625,0.47472324723247233,0.5010015814443859,0.7693990511333685,0.5023830801012307,0.49800417044433803,0.17866658785371706,0.7527400065159799,0.003987727774206648
0.63875,0.6325,0.685,0.62375,0.705,0.5375,0.89375,0.8025,0.83625,0.75,0.77375,0.66625,0.47477596204533473,0.5009488666315235,0.7694517659462309,0.5023235030404625,0.4985105749367308,0.17867131295356697,0.7514916170519467,0.003572938306967996
0.63825,0.632,0.685,0.6232500000000001,0.70475,0.5375,0.894,0.80325,0.8370000000000001,0.7497499999999999,0.77425,0.66625,0.4749077490774908,0.5008434370057986,0.7696889826041118,0.5026213880239976,0.49877867144811927,0.1779448702192492,0.7496229818642892,0.005868957644345094
0.63775,0.6315,0.685,0.62275,0.7045,0.5375,0.89425,0.804,0.8377500000000001,0.7495,0.7747499999999999,0.66625,0.4749868212967844,0.5009488666315235,0.7698998418555614,0.502949061508798,0.4990765564607731,0.1794024715949335,0.7496210092939855,0.005877217039942244
0.63725,0.631,0.685,0.62225,0.7042499999999999,0.5375,0.8945000000000001,0.80475,0.8384999999999999,0.74925,0.7752500000000001,0.66625,0.4749077490774908,0.501265155508698,0.7696889826041118,0.5029192730075327,0.4988680369519154,0.17718537017158453,0.7521158156517482,0.004613370704497901
0.6367499999999999,0.6305,0.685,0.62175,0.7040000000000001,0.5375,0.8947499999999999,0.8055,0.8392499999999999,0.7490000000000001,0.77575,0.66625,0.47474960463890353,0.5015550869794412,0.7695308381655246,0.5027703305303245,0.4983914209025505,0.18089785538381453,0.7539851083628403,0.003355831736369067
0.63625,0.63,0.685,0.62125,0.70375,0.5375,0.895,0.80625,0.84,0.74875,0.77625,0.66625,0.4745387453874539,0.5014232999472852,0.7695308381655246,0.5026511765252629,0.49764670840003467,0.17495411183428838,0.7465059572125985,0.004616403957936238
0.636,0.62975,0.685,0.621,0.7034999999999999,0.5375,0.89425,0.8072499999999999,0.8395,0.7484999999999999,0.7765000000000001,0.66625,0.4746178176067475,0.5011860832894043,0.7696889826041118,0.5025915995809697,0.49693178436966545,0.17644004542346958,0.7502458654172216,0.002310390235757085
0.63575,0.6295000000000001,0.685,0.62075,0.70325,0.5375,0.8935,0.80825,0.8390000000000001,0.7482500000000001,0.7767499999999999,0.66625,0.47480231945176593,0.5011597258829731,0.7695571955719558,0.5026213881113538,0.49636580284562315,0.17644004542346958,0.7496223243408546,0.005238796595712428
0.6355,0.62925,0.685,0.6204999999999999,0.703,0.5375,0.89275,0.80925,0.8384999999999999,0.748,0.777,0.66625,0.4748813916710596,0.5010806536636795,0.7696099103848182,0.5035150431493153,0.49627643731270826,0.17866658785371706,0.750245207893787,0.004404302520192372
0.63525,0.629,0.685,0.62025,0.7027500000000001,0.5375,0.892,0.81025,0.838,0.74775,0.77725,0.66625,0.4751449657353716,0.5011597258829731,0.7692409066947812,0.504438486717661,0.49642537984815394,0.18014780553584966,0.7539851083628403,0.00524789503261844
0.6345000000000001,0.6285000000000001,0.68475,0.62,0.7022499999999999,0.53725,0.8902500000000001,0.8115000000000001,0.8377500000000001,0.74625,0.77725,0.6657500000000001,0.47503953610964683,0.5011860832894043,0.7692936215076436,0.505570449823983,0.4965743223253621,0.17867131295356697,0.7496216668174202,0.0035735642794271255
0.634,0.62825,0.6845,0.62,0.7020000000000001,0.537,0.88925,0.81175,0.838,0.745,0.777,0.66525,0.4748813916710596,0.5017395888244597,0.7691618344754876,0.5072981829556128,0.49645516832030057,0.17867131295356697,0.7496216668174202,0.0035735642794271255
0.6335000000000001,0.628,0.68425,0.62,0.70175,0.53675,0.88825,0.812,0.83825,0.74375,0.7767499999999999,0.66475,0.4751713231418028,0.5022667369530838,0.7690564048497628,0.5087578195467354,0.4963955913177698,0.17791653800575227,0.7489994485234921,0.003575079582737293
0.633,0.62775,0.684,0.62,0.7015,0.5365,0.88725,0.8122499999999999,0.8384999999999999,0.7425,0.7765000000000001,0.66425,0.4758039008961518,0.5026884554559832,0.7688191881918819,0.5096514745264594,0.49642537984815394,0.17866658785371706,0.7508687412345841,0.0021082818594062745
0.6325,0.6275,0.68375,0.62,0.70125,0.53625,0.88625,0.8125,0.83875,0.74125,0.77625,0.66375,0.4759093305218767,0.5031628887717449,0.7692409066947812,0.5105451296226584,0.49690199586840006,0.17568527047565485,0.7508687412345841,0.0046164079281632514
0.6317499999999999,0.62725,0.68325,0.62,0.701,0.53675,0.88625,0.8125,0.8377500000000001,0.7404999999999999,0.7759999999999999,0.6629999999999999,0.47633104902477597,0.5039799683711123,0.768950975224038,0.5073577599581436,0.4985701519392616,0.18386500665512842,0.7533628900689123,0.004405197144679425
0.6305,0.6267499999999999,0.6822499999999999,0.61975,0.7005,0.53725,0.8859999999999999,0.8134999999999999,0.8370000000000001,0.7402500000000001,0.77575,0.6625,0.4757775434897206,0.5033737480231946,0.7691618344754876,0.5035448316796994,0.500238308010123,0.17642115421687124,0.7527393489925454,0.005237248207177146
0.62825,0.62575,0.68125,0.61975,0.69975,0.53725,0.8859999999999999,0.81375,0.83575,0.74,0.7755,0.66325,0.47511860832894043,0.5027411702688456,0.769346336320506,0.5002978849544164,0.5001489424772082,0.18016197164259817,0.7533615672864733,0.004621426295108354
0.626,0.62475,0.68025,0.61975,0.6990000000000001,0.53725,0.8859999999999999,0.8140000000000001,0.8345,0.7397499999999999,0.7752500000000001,0.664,0.4745914602003163,0.5023458091723775,0.7694781233526621,0.49705093834560826,0.49940422991645483,0.17865714684681858,0.7539857658862748,0.0031511546231405016
0.62375,0.62375,0.67925,0.61975,0.69825,0.53725,0.8859999999999999,0.8142499999999999,0.83325,0.7395,0.775,0.66475,0.47469688982604114,0.5020558777016342,0.7691618344754876,0.4939529340975333,0.49854036335063995,0.18013835533614986,0.7514942548812549,0.003979064738863119
0.62225,0.623,0.67875,0.61975,0.6977500000000001,0.53675,0.8859999999999999,0.8145,0.833,0.74,0.775,0.66625,0.47445967316816023,0.5012124406958355,0.7698998418555614,0.4946380696557559,0.4969615728126934,0.17419933688647354,0.7458830813952361,0.00356421042458325
0.62125,0.6225,0.67875,0.62,0.6975,0.53625,0.88625,0.81375,0.8325,0.74,0.775,0.6675,0.47472324723247233,0.5011070110701107,0.7698734844491302,0.4954721476911867,0.49603812927346647,0.17643060441657102,0.7490001060469267,0.005245285270061536
0.62175,0.62225,0.67875,0.62,0.6972499999999999,0.53625,0.8855,0.8142499999999999,0.8322499999999999,0.7397499999999999,0.7747499999999999,0.667,0.474934106483922,0.5008170795993674,0.7700316288877174,0.4959487637696703,0.49687220733801596,0.17643060441657102,0.7490001060469267,0.005245285270061536
0.622,0.62175,0.67875,0.6195,0.6970000000000001,0.53625,0.88625,0.8145,0.8325,0.7397499999999999,0.7747499999999999,0.6665000000000001,0.47443331576172904,0.5005798629414866,0.7696889826041118,0.4965743223253621,0.4979148049114231,0.1779354292123507,0.7508687412345841,0.0035605379645957335
0.62225,0.62125,0.67875,0.619,0.69675,0.53625,0.887,0.81475,0.8327500000000001,0.7397499999999999,0.7747499999999999,0.6659999999999999,0.4738007380073801,0.5002372166578809,0.769847127042699,0.49690199586840006,0.49901697948736107,0.17791653800575227,0.7496223243408546,0.003984053990810121
0.6225,0.621,0.67875,0.6185,0.69675,0.536,0.88825,0.81525,0.833,0.74,0.775,0.6657500000000001,0.4734317343173432,0.500131787032156,0.7692672641012124,0.4980935358898967,0.4997914804911423,0.17791653800575227,0.7496223243408546,0.003984053990810121
0.62275,0.62075,0.67875,0.618,0.69675,0.5357500000000001,0.8895000000000001,0.81575,0.83325,0.7402500000000001,0.7752500000000001,0.6655,0.4735898787559304,0.5001581444385872,0.7687928307854507,0.4990169794582423,0.4999404229974692,0.18238378897299581,0.748998133476623,0.004203993980087694
0.6225,0.62075,0.6785,0.6175,0.6972499999999999,0.536,0.8902500000000001,0.81575,0.8345,0.742,0.7755,0.66675,0.473537163943068,0.5001581444385872,0.768318397469689,0.4999106344962038,0.4998510574936731,0.18238378897299581,0.748998133476623,0.004203993980087694
0.6225,0.621,0.67825,0.6175,0.6977500000000001,0.53625,0.8895000000000001,0.816,0.83525,0.7434999999999999,0.7755,0.6679999999999999,0.4734844491302056,0.5001054296257248,0.7689773326304692,0.5007149240303692,0.5,0.18311967271421217,0.7465066224716029,0.0029340308482245204
0.6225,0.62125,0.6779999999999999,0.6175,0.69825,0.5365,0.88875,0.81625,0.836,0.745,0.7755,0.66925,0.47329994728518715,0.49981549815498155,0.7689773326304692,0.5016085790683308,0.4998510574936731,0.17867131295356697,0.7489974759531884,0.004613811399696408
0.6225,0.62125,0.6777500000000001,0.6175,0.6984999999999999,0.537,0.8875,0.81625,0.83675,0.74625,0.7752500000000001,0.67025,0.4730890880337375,0.4996573537163943,0.7686610437532946,0.5016085790683308,0.4994340184759577,0.17719009527143445,0.7508687412345841,0.004823710684856762
0.6225,0.62125,0.6775,0.6175,0.69875,0.5375,0.88625,0.81625,0.8375,0.7475,0.775,0.67125,0.4730890880337375,0.4996573537163943,0.7689773326304692,0.5017575215746577,0.4995829609822846,0.17719009527143445,0.7508687412345841,0.004823710684856762
0.6225,0.62125,0.6775,0.6175,0.69875,0.5375,0.88625,0.81625,0.8375,0.7475,0.775,0.67125,0.47261465471797576,0.4995782814971007,0.7691618344754876,0.5016383675695961,0.4999404229974692,0.17940719669478342,0.7527393489925454,0.003354751834621392
0.6225,0.62125,0.6777500000000001,0.61725,0.69875,0.53825,0.887,0.81625,0.8377500000000001,0.7475,0.7752500000000001,0.67175,0.4731418028465999,0.49952556668423825,0.7687928307854507,0.5016979445721269,0.5002085195088577,0.17791653800575227,0.750867426187715,0.005663598975479199
0.6225,0.62125,0.6777500000000001,0.61675,0.6990000000000001,0.5385,0.88775,0.8165,0.83875,0.748,0.7755,0.6729999999999999,0.4734844491302056,0.49973642593568796,0.7685028993147074,0.5017873100468043,0.5004766160202462,0.1756805453758049,0.7489987910000575,0.0033488904561404134
0.6225,0.62125,0.6777500000000001,0.61625,0.6992499999999999,0.53875,0.8885,0.81675,0.83975,0.7484999999999999,0.77575,0.67425,0.4734580917237744,0.5000527148128624,0.7687401159725883,0.5018468870493351,0.5008638665366961,0.1794024715949335,0.7521158156517482,0.003574875777750597
0.6225,0.62125,0.6777500000000001,0.61575,0.6995,0.539,0.88925,0.8170000000000001,0.84075,0.7490000000000001,0.7759999999999999,0.6755,0.472772799156563,0.5001845018450185,0.7683447548761202,0.5017575215455389,0.5009830205417577,0.1794024715949335,0.7521158156517482,0.003574875777750597
0.6225,0.62125,0.6777500000000001,0.61525,0.69975,0.53925,0.89,0.8172499999999999,0.84175,0.7495,0.77625,0.67675,0.47258829731154456,0.5004480759093305,0.7684765419082762,0.5018170985480697,0.5010425975442885,0.18237907306594714,0.7527400065159799,0.00398557061752929
0.6225,0.62125,0.6775,0.615,0.7,0.53875,0.89,0.8175,0.8425,0.75,0.77625,0.6775,0.47227200843437006,0.5004744333157617,0.7689246178176068,0.5017575215455389,0.5013404825569423,0.17866658785371706,0.7546073266567682,0.004613561275394548
0.6225,0.62125,0.6775,0.615,0.7,0.53875,0.89,0.8175,0.8425,0.75,0.77625,0.6775,0.47195571955719556,0.5004217185028993,0.7695571955719558,0.5016383675695961,0.5016383675695961,0.17866658785371706,0.7546073266567682,0.004613561275394548
0.6225,0.62125,0.6775,0.615,0.7,0.53875,0.89,0.8175,0.8425,0.75,0.77625,0.6775,0.4721929362150764,0.5002635740643121,0.7696099103848182,0.5014596365620038,0.5019958295847807,0.17567582946875626,0.7502471804640908,0.004190916052305125
0.6225,0.62125,0.6775,0.615,0.7,0.53875,0.89,0.8175,0.8425,0.75,0.77625,0.6775,0.47229836584080126,0.5001054296257248,0.769978914074855,0.5015490020658,0.5023830801012307,0.17866658785371706,0.7539851083628403,0.004405647103740958
0.62225,0.621,0.6775,0.61525,0.7,0.5385,0.88925,0.8175,0.8425,0.7505,0.77725,0.6785,0.4724828676858197,0.49986821296784395,0.7700843437005799,0.5019064640809846,0.5024128686024961,0.17866658785371706,0.7539851083628403,0.004405647103740958
0.622,0.62075,0.6775,0.6154999999999999,0.7,0.53825,0.8885,0.8175,0.8425,0.7509999999999999,0.77825,0.6795,0.47232472324723246,0.4996837111228255,0.769847127042699,0.5019660410835154,0.502502234135411,0.17867603805341692,0.7514916170519467,0.003992076496195471
0.62175,0.6204999999999999,0.6775,0.61575,0.7,0.5379999999999999,0.88775,0.8175,0.8425,0.7515000000000001,0.77925,0.6805,0.47232472324723246,0.4996573537163943,0.7692409066947812,0.5021745605923731,0.5025618111379417,0.17420405279352222,0.7527400065159799,0.004195938389477241
0.6214999999999999,0.62025,0.6775,0.616,0.7,0.53775,0.887,0.8175,0.8425,0.752,0.7802500000000001,0.6815000000000001,0.4717712177121771,0.4996309963099631,0.7690300474433316,0.5025320226366764,0.5027703306759181,0.17719482037128434,0.7514916170519467,0.005250061453158815
0.62125,0.62,0.6775,0.61625,0.7,0.5375,0.88625,0.8175,0.8425,0.7525,0.78125,0.6825,0.4718239325250395,0.49986821296784395,0.768950975224038,0.5026809651430033,0.5026809651430033,0.18161957301828247,0.7496216668174202,0.0046157634279780585
0.62125,0.61975,0.6775,0.616,0.7,0.53725,0.8859999999999999,0.8175,0.8427500000000001,0.75325,0.78125,0.68325,0.47158671586715867,0.49986821296784395,0.7686874011597259,0.5025915996392072,0.5028299076493302,0.17791181290590238,0.7533615672864733,0.006083656933964814
0.62125,0.6195,0.6775,0.61575,0.7,0.537,0.88575,0.8175,0.843,0.754,0.78125,0.684,0.47127042698998417,0.5003162888771745,0.768450184501845,0.5024128686316148,0.5028001191189461,0.17940719669478342,0.7527393489925454,0.0021002593540209347
0.62125,0.61925,0.6775,0.6154999999999999,0.7,0.53675,0.8855,0.8175,0.84325,0.7547499999999999,0.78125,0.68475,0.47095413811280973,0.5006062203479178,0.7686610437532946,0.5021447721202263,0.5027405421164153,0.17643532032361967,0.7508700562814533,0.005038845376038965
0.621,0.61925,0.6775,0.61475,0.69975,0.53625,0.8852500000000001,0.8177500000000001,0.8434999999999999,0.7559999999999999,0.7815000000000001,0.6855,0.4711122825513969,0.500764364786505,0.768581971534001,0.5016979445721269,0.5018468870493351,0.17643532032361967,0.7508700562814533,0.005038845376038965
0.62075,0.61925,0.6775,0.614,0.6995,0.5357500000000001,0.885,0.818,0.84375,0.75725,0.78175,0.68625,0.4710068529256721,0.500632577754349,0.7686610437532946,0.5013702710582076,0.5010723860455538,0.17718065426453591,0.7496216668174202,0.0027282500118861928
0.6204999999999999,0.6195,0.6775,0.6135,0.6992499999999999,0.5355,0.885,0.81825,0.84375,0.75775,0.782,0.68625,0.4710068529256721,0.5008170795993674,0.7685292567211386,0.5014894250923879,0.5001191540050616,0.17867131295356697,0.7539864234097094,0.004616204123176555
0.62,0.6195,0.6772499999999999,0.613,0.69875,0.53525,0.8852500000000001,0.8177500000000001,0.8434999999999999,0.758,0.7825,0.68625,0.47095413811280973,0.5007116499736426,0.7685028993147074,0.5018170986063072,0.4991361334633039,0.17644004542346958,0.7477543466766318,0.003988840761179438
0.6195,0.6195,0.677,0.6125,0.69825,0.535,0.8855,0.8172499999999999,0.84325,0.75825,0.7829999999999999,0.68625,0.4708223510806537,0.5004480759093305,0.7686083289404323,0.5022937146556721,0.4980935358898967,0.18237434796609722,0.7489987910000575,0.006081281414801718
0.61925,0.61925,0.67675,0.6125,0.698,0.535,0.88575,0.8165,0.843,0.758,0.78325,0.68625,0.4705587770163416,0.5003953610964681,0.7686346863468635,0.5031873696353961,0.49758713136838517,0.1816479052317794,0.7539857658862748,0.004200066102162314
0.619,0.619,0.6765000000000001,0.6125,0.6977500000000001,0.535,0.8859999999999999,0.81575,0.8427500000000001,0.75775,0.7835,0.68625,0.470479704797048,0.5002635740643121,0.7683447548761202,0.5043193326543619,0.4968126303063664,0.1734776192520057,0.7508680837111495,0.004404552644494223
0.61875,0.61875,0.67625,0.6125,0.6975,0.535,0.88625,0.815,0.8425,0.7575,0.78375,0.68625,0.4705060622034792,0.5002372166578809,0.7685028993147074,0.5052427761062326,0.49603812927346647,0.17718537017158453,0.7452602055778734,0.005034091690894772
0.6182500000000001,0.6182500000000001,0.6759999999999999,0.61225,0.6972499999999999,0.5347500000000001,0.885,0.81525,0.84175,0.757,0.78325,0.6855,0.4710068529256721,0.5004217185028993,0.7688455455983132,0.5057193921264788,0.49574024428993135,0.17718537017158453,0.7452602055778734,0.005034091690894772
0.61775,0.61775,0.6757500000000001,0.612,0.6970000000000001,0.5345,0.88375,0.8155,0.841,0.7565000000000001,0.7827500000000001,0.68475,0.47161307327358987,0.5009225092250923,0.7688982604111756,0.5051831990745831,0.49585939832411163,0.17718065426453591,0.7521164731751828,0.006918540091732189
0.61725,0.61725,0.6755,0.61175,0.69675,0.53425,0.8825,0.81575,0.84025,0.7559999999999999,0.7822499999999999,0.684,0.472140221402214,0.5010279388508171,0.7694517659462309,0.5042299670923283,0.49624664884056163,0.17865714684681858,0.7477543466766318,0.005035812122600627
0.6164999999999999,0.6164999999999999,0.67525,0.61075,0.6965,0.53425,0.882,0.81625,0.8384999999999999,0.7547499999999999,0.78125,0.6822499999999999,0.4721138639957828,0.5012387981022668,0.7700052714812863,0.5028596960632394,0.49705093840384573,0.1816242981181324,0.7521164731751828,0.00482958662083679
0.61575,0.61575,0.675,0.60975,0.69625,0.53425,0.8815000000000001,0.81675,0.83675,0.7535,0.7802500000000001,0.6805,0.4720875065893516,0.5010542962572483,0.770216130732736,0.5013106940556769,0.49809353594813416,0.17643060441657102,0.752741321562849,0.003979283101348866
0.6154999999999999,0.6154999999999999,0.675,0.609,0.69625,0.5345,0.88225,0.8170000000000001,0.83575,0.75275,0.7797499999999999,0.6795,0.4720875065893516,0.5010542962572483,0.770216130732736,0.5003574620151846,0.4987488829468539,0.17866186275386717,0.7546086417036374,0.005871572700538001
0.61525,0.61525,0.675,0.6082500000000001,0.69625,0.5347500000000001,0.883,0.8172499999999999,0.83475,0.752,0.77925,0.6785,0.47161307327358987,0.5010279388508171,0.7700316288877174,0.5,0.4992552874683654,0.17867131295356697,0.7546086417036374,0.004402145363515024
0.615,0.615,0.675,0.6075,0.69625,0.535,0.88375,0.8175,0.83375,0.75125,0.77875,0.6775,0.47161307327358987,0.5010542962572483,0.7697680548234054,0.4999106344962038,0.49961274948355,0.1808836892770661,0.7502478379875254,0.004198080988655549
0.61475,0.61525,0.675,0.60775,0.6965,0.5347500000000001,0.883,0.8170000000000001,0.8334999999999999,0.7515000000000001,0.77925,0.6775,0.4713231418028466,0.5009488666315235,0.76921454928835,0.5006851354999851,0.4997319034886115,0.18163846422488086,0.7483765727061296,0.005037110386834059
0.6145,0.6154999999999999,0.675,0.608,0.69675,0.5345,0.88225,0.8165,0.83325,0.7517499999999999,0.7797499999999999,0.6775,0.47158671586715867,0.5014232999472852,0.7688455455983132,0.5016979445430082,0.4986893059443231,0.18163846422488086,0.7483765727061296,0.005037110386834059
0.61425,0.61575,0.675,0.6082500000000001,0.6970000000000001,0.53425,0.8815000000000001,0.816,0.833,0.752,0.7802500000000001,0.6775,0.4714812862414338,0.5015023721665788,0.7686346863468635,0.5022937145683158,0.4979445934126885,0.17495411183428838,0.7496249621701628,0.003986242909303582
0.614,0.616,0.675,0.6085,0.6970000000000001,0.53425,0.88075,0.81625,0.8327500000000001,0.752,0.78075,0.6772499999999999,0.4714812862414338,0.5014496573537164,0.7688719030047444,0.5031873696353961,0.49699136137219624,0.17495411183428838,0.7496249621701628,0.003986242909303582
0.6135,0.61625,0.67475,0.6085,0.6970000000000001,0.5345,0.87925,0.816,0.8325,0.7517499999999999,0.78125,0.6765000000000001,0.4717448603057459,0.5017395888244597,0.7690300474433316,0.5032469466379269,0.49731903488611545,0.18089313028396461,0.7502458654172216,0.0060879738941375236
0.6132500000000001,0.61625,0.6745,0.6082500000000001,0.69675,0.535,0.8785,0.81625,0.8325,0.75125,0.78125,0.6757500000000001,0.47224565102793886,0.5023721665788087,0.7693726937269373,0.5025320226366764,0.49788501641015775,0.18089313028396461,0.7502458654172216,0.0060879738941375236
0.613,0.61625,0.67425,0.608,0.6965,0.5355,0.87775,0.8165,0.8325,0.75075,0.78125,0.675,0.47198207696362676,0.5023721665788087,0.7697944122298366,0.5017873101050417,0.4997616920189957,0.18089313028396461,0.7502478379875254,0.004833296136276434
0.61275,0.61625,0.674,0.60775,0.69625,0.536,0.877,0.81675,0.8325,0.7502500000000001,0.78125,0.67425,0.47224565102793886,0.5026357406431207,0.7697944122298366,0.5014298480898571,0.5014298480898571,0.17642587931672118,0.7508667686642804,0.004827620035056089
0.61275,0.6154999999999999,0.67375,0.6075,0.69625,0.5365,0.87625,0.816,0.8325,0.75,0.78175,0.67375,0.4721665788086452,0.5024775962045335,0.7697680548234054,0.501012809043023,0.5031873696353961,0.17867603805341692,0.7483752499236906,0.0029346899059087737
0.613,0.61475,0.67375,0.6075,0.69625,0.53675,0.87625,0.81575,0.8325,0.75,0.7822499999999999,0.67375,0.47158671586715867,0.5021876647337902,0.7697416974169742,0.5015490020949187,0.5036937741277889,0.1808789641772162,0.7508707138048878,0.0037748005292439603
0.6132500000000001,0.614,0.67375,0.6075,0.69625,0.537,0.87625,0.8155,0.8325,0.75,0.7827500000000001,0.67375,0.4714812862414338,0.5020822351080654,0.7691881918819188,0.5027107536442686,0.5040810246442389,0.17864769664711874,0.7489994485234921,0.0037748005292439603
0.6135,0.6132500000000001,0.67375,0.6075,0.69625,0.53725,0.87625,0.81525,0.8325,0.75,0.78325,0.67375,0.47124406958355297,0.5022140221402214,0.768950975224038,0.5040214477290643,0.5039022935784091,0.1779354292123507,0.7502458654172216,0.0031450431203576736
0.61375,0.6125,0.67375,0.6075,0.69625,0.5375,0.87625,0.815,0.8325,0.75,0.78375,0.67375,0.47069056404849763,0.5022667369530838,0.76921454928835,0.5047363717594335,0.5036937740404327,0.17866186275386717,0.7521164731751828,0.005035154388325385
0.614,0.6125,0.6735,0.60775,0.69625,0.5375,0.87625,0.81525,0.8340000000000001,0.75075,0.78375,0.674,0.47066420664206643,0.5027411702688456,0.7693199789140748,0.5054215072885374,0.5034554660303096,0.17643532032361967,0.7496229818642892,0.0033636319090416572
0.61425,0.6125,0.67325,0.608,0.69625,0.5375,0.87625,0.8155,0.8355,0.7515000000000001,0.78375,0.67425,0.4705851344227728,0.5035318924617818,0.7691091196626252,0.505064045244234,0.5038129280454942,0.18461505650309326,0.7533622248099079,0.005449321853331922
0.6145,0.6125,0.6729999999999999,0.6082500000000001,0.69625,0.5375,0.87625,0.81575,0.8370000000000001,0.75225,0.78375,0.6745,0.47042698998418553,0.5039799683711123,0.769082762256194,0.5034554661759033,0.5039022935784091,0.18162901402518106,0.7477543466766318,0.0027312832653245303
0.61475,0.6125,0.6727500000000001,0.6085,0.69625,0.5375,0.87625,0.816,0.8384999999999999,0.753,0.78375,0.67475,0.47040063257775433,0.5041644702161308,0.7686874011597259,0.5009532320696111,0.5043789095986553,0.17791653800575227,0.7539857658862748,0.004613139107922115
0.615,0.6125,0.6725,0.60875,0.69625,0.5375,0.87625,0.81625,0.84,0.75375,0.78375,0.675,0.4701107011070111,0.5044807590933053,0.7680021085925145,0.49845099796331876,0.5047661600859865,0.1771712040648361,0.7527393489925454,0.004828510689316128
0.615,0.6125,0.6725,0.60875,0.69625,0.5375,0.87625,0.81625,0.84,0.75375,0.78375,0.675,0.46989984185556144,0.5041644702161308,0.7673958882445968,0.4955615133696953,0.5049151026214321,0.17865242174696863,0.7490014210937959,0.0031478712454003142
0.615,0.6125,0.6727500000000001,0.60875,0.6965,0.5375,0.87725,0.81575,0.8392499999999999,0.7547499999999999,0.78425,0.6759999999999999,0.46958355297838694,0.5031101739588825,0.7672113863995782,0.494340184876052,0.5034554660885471,0.18014780553584966,0.750245207893787,0.0054501939798658975
0.615,0.6125,0.6729999999999999,0.60875,0.69675,0.5375,0.87825,0.81525,0.8384999999999999,0.75575,0.78475,0.677,0.4694781233526621,0.5022140221402214,0.7671586715867158,0.4939827228608674,0.5017873100176855,0.18014780553584966,0.750245207893787,0.0054501939798658975
0.615,0.6125,0.67325,0.60875,0.6970000000000001,0.5375,0.87925,0.81475,0.8377500000000001,0.7567499999999999,0.78525,0.6779999999999999,0.46955719557195574,0.5016341591987349,0.767053241960991,0.49419124234060635,0.5000595770025308,0.17718065426453591,0.7490001060469267,0.002302339938782646
0.615,0.6125,0.6735,0.60875,0.6972499999999999,0.5375,0.8802500000000001,0.8142499999999999,0.8370000000000001,0.75775,0.7857500000000001,0.679,0.47000527148128624,0.5010279388508171,0.7675013178703216,0.4959785524165294,0.49740840041903034,0.17718065426453591,0.7490001060469267,0.002302339938782646
0.615,0.6125,0.67375,0.60875,0.6975,0.5375,0.88125,0.81375,0.83625,0.75875,0.78625,0.68,0.47037427517132313,0.5010542962572483,0.7678703215603584,0.49815311297978365,0.4949955317874155,0.1756994365824033,0.7508700562814533,0.0037763303900531786
0.615,0.6125,0.67375,0.60875,0.6975,0.5375,0.88125,0.81375,0.83625,0.75875,0.78625,0.68,0.4705060622034792,0.5016605166051661,0.7679757511860833,0.4998510575227918,0.49365504925959197,0.17940719669478342,0.7539831357925365,0.004622085352792598
0.615,0.6125,0.67375,0.60875,0.6975,0.5375,0.88125,0.81375,0.83625,0.75875,0.78625,0.68,0.4704533473906168,0.5019240906694781,0.7681338956246705,0.5014596365911226,0.4928209712241612,0.17940719669478342,0.7539831357925365,0.004622085352792598
0.615,0.61275,0.67375,0.60875,0.6972499999999999,0.537,0.88125,0.8140000000000001,0.83675,0.75825,0.78625,0.67975,0.4702161307327359,0.5013705851344228,0.768450184501845,0.5039320821670307,0.4916592196456925,0.17716648815778746,0.7521171306986173,0.0044056338696509085
0.615,0.613,0.67375,0.60875,0.6970000000000001,0.5365,0.88125,0.8142499999999999,0.8372499999999999,0.75775,0.78625,0.6795,0.46992619926199264,0.5010279388508171,0.7682920400632578,0.5069407207657157,0.4910038725596165,0.17568999557550477,0.7508687412345841,0.0033595425752177216
0.615,0.6132500000000001,0.67375,0.60875,0.69675,0.536,0.88125,0.8145,0.8377500000000001,0.75725,0.78625,0.67925,0.46955719557195574,0.5005007907221929,0.7685292567211386,0.5114089958972858,0.4900208520469776,0.17568999557550477,0.7508687412345841,0.0033595425752177216
0.615,0.6135,0.67375,0.60875,0.6965,0.5355,0.88125,0.81475,0.83825,0.7567499999999999,0.78625,0.679,0.47066420664206643,0.5005271481286241,0.769082762256194,0.5159368478566743,0.48906761989001035,0.17420405279352222,0.7527400065159799,0.003567934497521944
0.615,0.61375,0.67375,0.60875,0.69625,0.535,0.88125,0.815,0.83875,0.75625,0.78625,0.67875,0.47095413811280973,0.5009225092250923,0.7694781233526621,0.5198987187288016,0.48850163833684934,0.18015724654274826,0.755232840303439,0.003995782041408091
0.615,0.61375,0.67375,0.60875,0.69625,0.535,0.88125,0.815,0.83875,0.75625,0.78625,0.67875,0.4714285714285714,0.5021349499209278,0.769715340010543,0.5229967230933514,0.48826333032672625,0.18015724654274826,0.755232840303439,0.003995782041408091
0.615,0.61375,0.67375,0.60875,0.69625,0.535,0.88125,0.815,0.83875,0.75625,0.78625,0.67875,0.47161307327358987,0.5032946758039009,0.7698998418555614,0.5238605897174038,0.488442061392556,0.17494466163458858,0.7483759151826951,0.005037547111805543
0.615,0.61375,0.67375,0.60875,0.69625,0.535,0.88125,0.815,0.83875,0.75625,0.78625,0.67875,0.47227200843437006,0.50458618871903,0.769346336320506,0.5223711647123721,0.48876973481911906,0.17642587931672118,0.7502471804640908,0.003573990417126581
0.61475,0.61375,0.67375,0.609,0.69625,0.536,0.8805,0.81525,0.8372499999999999,0.7552500000000001,0.78525,0.6775,0.47153400105429627,0.5047706905640486,0.7684765419082762,0.5201668159099211,0.48882931199636226,0.17421821890027073,0.7489987910000575,0.0037735022650105384
0.6145,0.61375,0.67375,0.60925,0.69625,0.537,0.8797499999999999,0.8155,0.83575,0.75425,0.78425,0.67625,0.4717448603057459,0.5050079072219293,0.7683711122825514,0.5177837355757404,0.4882335418545796,0.1794119217946333,0.7539851083628403,0.006713835186914533
0.61425,0.61375,0.67375,0.6095,0.69625,0.5379999999999999,0.879,0.81575,0.8342499999999999,0.75325,0.78325,0.675,0.4721665788086452,0.5050869794412229,0.7682393252503954,0.5148644622770203,0.4879356569001633,0.17940719669478342,0.7483765727061296,0.00671339978535205
0.614,0.61375,0.67375,0.60975,0.69625,0.539,0.87825,0.816,0.8327500000000001,0.75225,0.7822499999999999,0.67375,0.472772799156563,0.5049551924090669,0.7680284659989457,0.5123324395821065,0.4879058684280166,0.17716648815778746,0.7527393489925454,0.0056660049330494065
0.61375,0.61375,0.67375,0.61,0.69625,0.54,0.8775,0.81625,0.83125,0.75125,0.78125,0.6725,0.47306273062730625,0.5051660516605166,0.7684765419082762,0.5098599939479609,0.48927613954446175,0.18312912291391198,0.7539857658862748,0.004821753362939096
0.61375,0.614,0.67375,0.61025,0.69575,0.54025,0.87825,0.816,0.83125,0.75075,0.78075,0.672,0.473537163943068,0.5054823405376911,0.76921454928835,0.5076258562657008,0.4910038725596165,0.17939303058803494,0.7471301558124,0.004828306884329432
0.61375,0.61425,0.67375,0.6104999999999999,0.69525,0.5405,0.879,0.81575,0.83125,0.7502500000000001,0.7802500000000001,0.6715000000000001,0.4738534528202425,0.505350553505535,0.769583552978387,0.5057491807151003,0.49335716427605686,0.17345400294555738,0.7508680837111495,0.005665584088985964
0.61375,0.6145,0.67375,0.61075,0.69475,0.5407500000000001,0.8797499999999999,0.8155,0.83125,0.7497499999999999,0.7797499999999999,0.6709999999999999,0.47398523985239854,0.505350553505535,0.7697416974169742,0.5043193326252432,0.49574024431905006,0.17718537017158453,0.7533648626392161,0.0037732653747987277
0.61375,0.61475,0.67375,0.611,0.6942499999999999,0.541,0.8805,0.81525,0.83125,0.74925,0.77925,0.6705,0.47409066947812334,0.5054296257248286,0.7700843437005799,0.5032171581075428,0.49785522790889236,0.17718537017158453,0.7533648626392161,0.0037732653747987277
0.61375,0.615,0.67375,0.61125,0.69375,0.54125,0.88125,0.815,0.83125,0.74875,0.77875,0.67,0.47403795466526094,0.5050869794412229,0.7701634159198735,0.5024724456050269,0.4989871909860957,0.17791653800575227,0.7558550585973669,0.003561632423842459
0.61375,0.615,0.67375,0.61125,0.69375,0.54125,0.88125,0.815,0.83125,0.74875,0.77875,0.67,0.47411702688455454,0.5049288350026357,0.7697944122298366,0.5018468870784538,0.4999404229974692,0.17791653800575227,0.7558550585973669,0.003561632423842459
0.61375,0.615,0.67375,0.61125,0.69375,0.54125,0.88125,0.815,0.83125,0.74875,0.77875,0.67,0.474169741697417,0.5050869794412229,0.769346336320506,0.5014596365620038,0.500536193022777,0.18014308043599975,0.750245207893787,0.006089744615385555
0.61375,0.615,0.67375,0.61125,0.69375,0.54125,0.88125,0.815,0.83125,0.74875,0.77875,0.67,0.47369530838165524,0.5052714812862414,0.7693726937269373,0.5011617515493499,0.5009830205417577,0.180888414376916,0.7558570311676707,0.0029366459044174375
0.61375,0.615,0.6735,0.6114999999999999,0.69375,0.5407500000000001,0.8817499999999999,0.8140000000000001,0.83125,0.74875,0.779,0.6695,0.4735898787559304,0.5051660516605166,0.7691881918819188,0.5007149240303692,0.5016383675404774,0.1771712040648361,0.7508707138048878,0.005668365894713451
0.61375,0.615,0.67325,0.61175,0.69375,0.54025,0.88225,0.813,0.83125,0.74875,0.77925,0.669,0.4731681602530311,0.5052978386926726,0.769082762256194,0.5007149240303692,0.5021447720619889,0.1771712040648361,0.7508707138048878,0.005668365894713451
0.61375,0.615,0.6729999999999999,0.612,0.69375,0.5397500000000001,0.88275,0.812,0.83125,0.74875,0.7795000000000001,0.6685,0.47290458618871906,0.5049288350026357,0.7691881918819188,0.5006255585265731,0.5027405421164153,0.17643060441657102,0.7508680837111495,0.006079951388752184
0.61375,0.615,0.6727500000000001,0.61225,0.69375,0.53925,0.88325,0.8109999999999999,0.83125,0.74875,0.7797499999999999,0.6679999999999999,0.47235108065366366,0.5049024775962045,0.7693990511333685,0.5004468275189807,0.5033363121708417,0.1831243978140621,0.7527393489925454,0.005249885439761219
0.61375,0.615,0.6725,0.6125,0.69375,0.53875,0.88375,0.81,0.83125,0.74875,0.78,0.6675,0.47235108065366366,0.5048761201897733,0.7690300474433316,0.5000595770025308,0.5037831396898225,0.17644477052331953,0.7508700562814533,0.004405382421940048
0.61375,0.615,0.6725,0.6125,0.69375,0.53875,0.88375,0.81,0.83125,0.74875,0.78,0.6675,0.47200843437005796,0.5045598313125988,0.7688719030047444,0.4994935954784885,0.5037831396898225,0.18536039044400945,0.748998133476623,0.005247900326254454
0.6135,0.615,0.6725,0.613,0.69375,0.539,0.8835,0.8109999999999999,0.831,0.7495,0.78,0.669,0.47190300474433317,0.5042698998418556,0.7683711122825514,0.4988084599202659,0.5036044086822302,0.17719009527143445,0.7496229818642892,0.006501311581698224
0.61275,0.615,0.6722499999999999,0.6132500000000001,0.6934999999999999,0.5385,0.8835,0.8115000000000001,0.8322499999999999,0.7505,0.7805,0.6727500000000001,0.4717712177121771,0.5040853979968372,0.7687137585661571,0.4985999404114082,0.5030980041315999,0.17719009527143445,0.7496229818642892,0.006501311581698224
0.612,0.615,0.672,0.6135,0.69325,0.5379999999999999,0.8835,0.812,0.8334999999999999,0.7515000000000001,0.7809999999999999,0.6765000000000001,0.47129678439641537,0.5040590405904058,0.7685556141275698,0.4991957104658346,0.5044682751315701,0.17421350299322205,0.7527393489925454,0.005245724641851041
0.611,0.61475,0.67175,0.6135,0.693,0.53725,0.884,0.813,0.83575,0.75425,0.7822499999999999,0.6822499999999999,0.4709014232999473,0.5032946758039009,0.7698734844491302,0.5016383675113586,0.5089663389682368,0.17421350299322205,0.7527393489925454,0.005245724641851041
0.61,0.6145,0.6715000000000001,0.6135,0.6927500000000001,0.5365,0.8845000000000001,0.8140000000000001,0.838,0.757,0.7835,0.688,0.47037427517132313,0.5031628887717449,0.7707432788613601,0.5044086981581581,0.5143878461402992,0.17643532032361967,0.7496229818642892,0.005452368340860309
0.60925,0.61425,0.67125,0.613,0.6925,0.5355,0.8852500000000001,0.8140000000000001,0.8405,0.759,0.78475,0.6922499999999999,0.4701107011070111,0.5038481813389563,0.7720875065893515,0.5077747988885027,0.5206136430503582,0.18089785538381453,0.75211317782244,0.003364930173275079
0.609,0.614,0.67125,0.61275,0.6925,0.53525,0.88575,0.8145,0.8415,0.76075,0.7855,0.6942499999999999,0.4695308381655245,0.5049815498154981,0.7727200843437005,0.5105153410340367,0.5276735178793729,0.18089785538381453,0.75211317782244,0.003364930173275079
0.609,0.614,0.67175,0.61275,0.693,0.535,0.88725,0.8165,0.84425,0.765,0.78675,0.6984999999999999,0.46884554559831315,0.5061412756984712,0.7737480231945176,0.5126601130086694,0.5339588917919627,0.17866186275386717,0.7533628900689123,0.004197672055273155
0.60925,0.61425,0.6722499999999999,0.613,0.6934999999999999,0.535,0.88825,0.818,0.846,0.7675,0.7872499999999999,0.70075,0.4687401159725883,0.5069847127042699,0.7739325250395361,0.5134048255111853,0.5375632999500556,0.17568999557550477,0.7514929320988158,0.004403008226185964
0.6095,0.6145,0.6727500000000001,0.6132500000000001,0.6940000000000001,0.535,0.88925,0.8195,0.84775,0.77,0.7877500000000001,0.703,0.469082762256194,0.5081971534001054,0.7758566157090142,0.5143580575516776,0.5418528441322709,0.18163846422488086,0.7490001060469267,0.0046257432552810635
0.60975,0.61475,0.67325,0.6135,0.6945,0.535,0.8902500000000001,0.821,0.8495,0.7725,0.78825,0.70525,0.46831839746968895,0.508777016341592,0.7769636267791249,0.5152517126478766,0.5466785812790256,0.18163846422488086,0.7490001060469267,0.0046257432552810635
0.61,0.615,0.67375,0.61375,0.695,0.535,0.89125,0.8225,0.85125,0.775,0.78875,0.7075,0.4676594623089088,0.5090142329994729,0.7795466526093833,0.5160262136225391,0.5534405707459615,0.17643532032361967,0.7477530316297627,0.0050347176633539015
0.6125,0.616,0.6759999999999999,0.61425,0.6972499999999999,0.536,0.8925,0.82325,0.85225,0.7767499999999999,0.79,0.70875,0.4665788086452293,0.508908803373748,0.7841855561412757,0.5145963656782756,0.5706285352481196,0.17643532032361967,0.7477530316297627,0.0050347176633539015
0.615,0.617,0.67825,0.61475,0.6995,0.537,0.89375,0.8240000000000001,0.8532500000000001,0.7785,0.79125,0.71,0.46457564575645754,0.511070110701107,0.7887717448603058,0.5133750371555137,0.5901697916123116,0.18089785538381453,0.7527393489925454,0.0050405975695609435
0.6175,0.618,0.6805,0.61525,0.70175,0.5379999999999999,0.895,0.82475,0.85425,0.7802500000000001,0.7925,0.71125,0.4618608328940432,0.5113863995782815,0.7915656299420137,0.5110217455264295,0.610664280016996,0.18386973175497834,0.7539864234097094,0.005033650995696266
0.62,0.619,0.6827500000000001,0.61575,0.7040000000000001,0.539,0.89625,0.8255,0.8552500000000001,0.782,0.79375,0.7125,0.45938323668950976,0.5102793885081708,0.7942013705851345,0.507715221769497,0.6324992508330289,0.17642587931672118,0.7502458654172216,0.004196123666737874
0.6225,0.62,0.685,0.61625,0.70625,0.54,0.8975,0.82625,0.85625,0.78375,0.795,0.71375,0.4562730627306273,0.510173958882446,0.7960727464417501,0.5047661601733427,0.653172470536493,0.17867131295356697,0.7508707138048878,0.0046116370387019965
0.6225,0.62,0.685,0.61625,0.70625,0.54,0.8975,0.82625,0.85625,0.78375,0.795,0.71375,0.4541644702161307,0.5127833421191355,0.7962308908803374,0.5036937740986701,0.6643729491088267,0.17643060441657102,0.7527386914691108,0.0037793490859924657
0.6232500000000001,0.621,0.6857500000000001,0.61725,0.7075,0.541,0.9015000000000001,0.8275,0.85775,0.7872499999999999,0.7959999999999999,0.71625,0.45081707959936745,0.5116499736425936,0.7984712704269901,0.4986893058860856,0.6825439362201731,0.1816479052317794,0.7502478379875254,0.0023142903220933755
0.624,0.622,0.6865000000000001,0.6182500000000001,0.70875,0.542,0.9055,0.82875,0.85925,0.7907500000000001,0.797,0.71875,0.4463363205060622,0.5114391143911439,0.8004480759093305,0.4936252604962579,0.7015490014834251,0.17197751036327466,0.747752374106328,0.0025200579243416536
0.62475,0.623,0.6872499999999999,0.61925,0.71,0.5429999999999999,0.9095,0.83,0.86075,0.79425,0.7979999999999999,0.72125,0.4405113336847654,0.5173431734317343,0.8065629942013706,0.4881739645899802,0.720941315253934,0.17197751036327466,0.747752374106328,0.0025200579243416536
0.6255,0.624,0.688,0.62025,0.71125,0.544,0.9135,0.83125,0.86225,0.7977500000000001,0.799,0.72375,0.4368212967843964,0.522403795466526,0.8105166051660516,0.48084599351164564,0.7422698827423239,0.17792126310560222,0.7477543466766318,0.0010482563915645824
0.62625,0.625,0.68875,0.62125,0.7125,0.545,0.9175,0.8325,0.86375,0.80125,0.8,0.72625,0.43194517659462306,0.5238798102266737,0.8153663679493938,0.47244563600921363,0.7634792954103273,0.17792126310560222,0.7477543466766318,0.0010482563915645824
0.62625,0.625,0.68875,0.62125,0.7125,0.545,0.9175,0.8325,0.86375,0.80125,0.8,0.72625,0.42949393779652084,0.5259620453347391,0.8196362677912494,0.4644623180195156,0.7787012202849071,0.17273228531108945,0.7471327859061384,0.002310612568469835
0.62625,0.625,0.68875,0.62125,0.7125,0.545,0.9175,0.8325,0.86375,0.80125,0.8,0.72625,0.4205324196099104,0.5301792303637322,0.8274907749077491,0.452874590939925,0.7938635658856943,0.17273228531108945,0.7471327859061384,0.002310612568469835
0.62625,0.625,0.69025,0.6214999999999999,0.71375,0.54675,0.9209999999999999,0.835,0.8652500000000001,0.8029999999999999,0.80125,0.72775,0.4191618344754876,0.5327095413811281,0.833711122825514,0.4408400370110847,0.8097408366816004,0.17494938673443847,0.744013788684144,0.001478339173259355
0.62625,0.625,0.69175,0.62175,0.715,0.5485,0.9245,0.8375,0.86675,0.80475,0.8025,0.72925,0.41394306800210856,0.5362150764364787,0.8449393779652082,0.42249032046455803,0.8274649941482979,0.1712369015222084,0.7427700096197227,0.001271882074919722
0.62625,0.625,0.69325,0.622,0.71625,0.55025,0.9279999999999999,0.84,0.8682500000000001,0.8065000000000001,0.80375,0.73075,0.4073010015814444,0.543516078017923,0.855086979441223,0.40151921650552747,0.8470658297862824,0.17345400294555738,0.7458843964421052,0.002097866630540777
0.62625,0.625,0.69475,0.62225,0.7175,0.552,0.9315000000000001,0.8425,0.8697499999999999,0.80825,0.805,0.73225,0.39868212967843963,0.5471006852925672,0.8692936215076437,0.37825439809465594,0.8644623142923167,0.17123218561515974,0.743391570390216,0.0016780415920399586
0.62625,0.625,0.69625,0.6225,0.71875,0.55375,0.935,0.845,0.87125,0.81,0.80625,0.73375,0.39799683711122824,0.548734844491302,0.8805745914602003,0.3594280669255827,0.8787310080582039,0.17123218561515974,0.743391570390216,0.0016780415920399586
0.62625,0.625,0.69625,0.6225,0.71875,0.55375,0.935,0.845,0.87125,0.81,0.80625,0.73375,0.38769109119662626,0.5543489720611492,0.8901950448075909,0.3433124864889041,0.8960083414710509,0.16974152692612854,0.7440157612544477,0.00020772360075694277
0.62625,0.625,0.69625,0.6225,0.71875,0.55375,0.935,0.845,0.87125,0.81,0.80625,0.73375,0.3827886136004217,0.5563257775434898,0.8833157617290459,0.3467083746431207,0.9094429552214329,0.16974152692612854,0.7440157612544477,0.00020772360075694277
0.62775,0.62725,0.6970000000000001,0.62475,0.7202500000000001,0.55675,0.9359999999999999,0.8454999999999999,0.87125,0.8115000000000001,0.8065000000000001,0.7347499999999999,0.3756721138639958,0.5464944649446495,0.8731154454401686,0.3612153743225816,0.9159368463424997,0.17344927784570746,0.745264150718481,0.0023167108371626235
0.62925,0.6295000000000001,0.6977500000000001,0.627,0.72175,0.55975,0.937,0.846,0.87125,0.813,0.80675,0.73575,0.37880864522930946,0.5423299947285187,0.8481286241433843,0.38016085938024136,0.9192135834035289,0.17123218561515974,0.7490014210937959,0.00063300770140136
0.63075,0.6317499999999999,0.6984999999999999,0.62925,0.7232500000000001,0.56275,0.938,0.8465,0.87125,0.8145,0.807,0.73675,0.3862414338429099,0.5361623616236162,0.8109910384818134,0.3949359546101723,0.9167113508114111,0.17123218561515974,0.7490014210937959,0.00063300770140136
0.63225,0.634,0.6992499999999999,0.6315,0.7247499999999999,0.56575,0.9390000000000001,0.847,0.87125,0.816,0.8072499999999999,0.73775,0.4018450184501845,0.5231681602530311,0.7631259884027412,0.400565981669636,0.904021446302246,0.1712369015222084,0.7446399598542492,0.0014711464453198411
0.63375,0.63625,0.7,0.63375,0.72625,0.56875,0.94,0.8475,0.87125,0.8175,0.8075,0.73875,0.47743806009488665,0.5264891934633632,0.726963626779125,0.3924635097913514,0.8723562717575234,0.16974624283317724,0.7502458654172216,0.001260576191794195
0.63375,0.63625,0.7,0.63375,0.72625,0.56875,0.94,0.8475,0.87125,0.8175,0.8075,0.73875,0.5323405376910912,0.5494728518713758,0.7128360569319979,0.38865058162938226,0.8053321437356968,0.16604320782064697,0.7496249621701628,0.0014726776295380605
0.63375,0.63625,0.7,0.63375,0.72625,0.56875,0.94,0.8475,0.87125,0.8175,0.8075,0.73875,0.5992619926199262,0.5723510806536637,0.7147337901950448,0.4028894856418982,0.7091748587391632,0.1727133941044911,0.7458837389186705,0.00021451268895008682
0.6355,0.6385000000000001,0.69975,0.63475,0.72675,0.5692499999999999,0.93825,0.84725,0.8697499999999999,0.8170000000000001,0.8065000000000001,0.737,0.6614391143911439,0.5872430152872957,0.7068529256721139,0.426184093689666,0.6062555842756935,0.1727133941044911,0.7458837389186705,0.00021451268895008682
0.63725,0.64075,0.6995,0.63575,0.72725,0.56975,0.9365000000000001,0.847,0.8682500000000001,0.8165,0.8055,0.7352500000000001,0.7037954665260938,0.592488139167106,0.6980495519240907,0.46502829957267666,0.4908847205346294,0.17347289415215578,0.7508707138048878,0.0020948016152863265
0.639,0.643,0.6992499999999999,0.6367499999999999,0.72775,0.57025,0.93475,0.84675,0.86675,0.816,0.8045,0.7334999999999999,0.6824196099103849,0.5810226673695308,0.6876910911966263,0.5099791480694974,0.3949061668368754,0.1734398368388089,0.7471334434295729,0.0014746151003206614
0.64075,0.6452500000000001,0.6990000000000001,0.63775,0.7282500000000001,0.57075,0.9329999999999999,0.8465,0.8652500000000001,0.8155,0.8035,0.73175,0.6819451765946231,0.5490774907749078,0.6675803900896151,0.5521596656283312,0.3296991377125435,0.1734398368388089,0.7471334434295729,0.0014746151003206614
0.643,0.64775,0.6990000000000001,0.63875,0.72925,0.57075,0.932,0.84625,0.86425,0.81525,0.8029999999999999,0.73075,0.6571955719557195,0.5124406958355298,0.6445703742751714,0.5763479293546728,0.2901102188611171,0.1749399457275399,0.7465072799950376,0.0006291354066541699
0.6435,0.648,0.6992499999999999,0.63875,0.7297499999999999,0.57025,0.9327500000000001,0.84625,0.8647499999999999,0.8155,0.8035,0.7315,0.6307327358987875,0.4834211913547707,0.6455719557195572,0.5946380684910063,0.26058981431095274,0.1749399457275399,0.7465072799950376,0.0006291354066541699
0.644,0.64825,0.6995,0.63875,0.7302500000000001,0.56975,0.9335,0.84625,0.8652500000000001,0.81575,0.804,0.73225,0.6124670532419609,0.46075382182393254,0.6717712177121771,0.6022043483365511,0.2305332130690501,0.1734634531452572,0.7465072799950376,0.0012582152301301498
0.6445000000000001,0.6485,0.69975,0.63875,0.73075,0.5692499999999999,0.93425,0.84625,0.86575,0.816,0.8045,0.733,0.5920137058513443,0.4392198207696363,0.7062994201370585,0.6085790874326309,0.18671432884330108,0.17345400294555738,0.7458843964421052,0.0008457351116043649
0.645,0.64875,0.7,0.63875,0.73125,0.56875,0.935,0.84625,0.86625,0.81625,0.805,0.73375,0.5718502899314708,0.42369530838165526,0.735239852398524,0.6055704477856712,0.1433422686714027,0.17345400294555738,0.7458843964421052,0.0008457351116043649
0.645,0.64875,0.7,0.63875,0.73125,0.56875,0.935,0.84625,0.86625,0.81625,0.805,0.73375,0.5512124406958355,0.41122825513969424,0.7618608328940433,0.6003276710970638,0.1001191548203863,0.17123218561515974,0.7477556694590708,0.0008398406478982732
0.645,0.64875,0.7,0.63875,0.73125,0.56875,0.935,0.84625,0.86625,0.81625,0.805,0.73375,0.5327358987875593,0.4011333684765419,0.7863995782814971,0.5960977047909415,0.059368485788190706,0.17123218561515974,0.7477556694590708,0.0008398406478982732
0.6455,0.649,0.70025,0.639,0.7315,0.56875,0.93475,0.84625,0.866,0.816,0.80475,0.73375,0.5112546125461255,0.3930680021085925,0.799235635213495,0.5883824823517134,0.03151623940543724,0.17347289415215578,0.7458876917948478,0.0010539324927849275
0.6459999999999999,0.64925,0.7005,0.63925,0.73175,0.56875,0.9345,0.84625,0.86575,0.81575,0.8045,0.73375,0.4885081707959937,0.3882445967316816,0.8084607274644176,0.5747393490633549,0.016264526757560627,0.17420405279352222,0.7465085950419067,0.0016769471327932333
0.6465000000000001,0.6495000000000001,0.70075,0.6395000000000001,0.732,0.56875,0.93425,0.84625,0.8654999999999999,0.8155,0.80425,0.73375,0.46338956246705326,0.3889826041117554,0.8175013178703215,0.5590705982713252,0.010396193784523222,0.17642115421687124,0.7458830813952361,0.0006351820623957709
0.647,0.6497499999999999,0.701,0.63975,0.73225,0.56875,0.934,0.84625,0.8652500000000001,0.81525,0.804,0.73375,0.44175013178703215,0.39143384290985767,0.8247232472324724,0.5464998504461457,0.009502538222424306,0.17420405279352222,0.74775698450594,0.0008472835001396364
0.6475,0.65,0.70125,0.64,0.7325,0.56875,0.93375,0.84625,0.865,0.815,0.80375,0.73375,0.41454928835002636,0.3959673168160253,0.8356615709014232,0.5299076549210207,0.013315462657194577,0.17420405279352222,0.74775698450594,0.0008472835001396364
0.6475,0.65,0.70125,0.64,0.7325,0.56875,0.93375,0.84625,0.865,0.815,0.80375,0.73375,0.3949393779652082,0.4038481813389562,0.8457301001581444,0.5157581171402694,0.02439678268194323,0.16899619298521237,0.7502478379875254,0.0008463928458796072
0.6475,0.65,0.70125,0.64,0.7325,0.56875,0.93375,0.84625,0.865,0.815,0.80375,0.73375,0.3701897733263047,0.4201370585134423,0.8586979441222984,0.4983020556899418,0.042180515695234455,0.16899619298521237,0.7502478379875254,0.0008463928458796072
0.64775,0.6502500000000001,0.70125,0.64,0.7325,0.5692499999999999,0.93375,0.846,0.8652500000000001,0.8155,0.804,0.7340000000000001,0.3210595677385345,0.4664997364259357,0.8475751186083289,0.49189752788876545,0.08912719438832944,0.1749399457275399,0.7477556694590708,0.0
0.648,0.6505,0.70125,0.64,0.7325,0.56975,0.93375,0.84575,0.8654999999999999,0.816,0.80425,0.73425,0.27087506589351606,0.5118081180811808,0.8335002635740643,0.4930592794672342,0.1477509634809056,0.1749399457275399,0.7477556694590708,0.0
0.64825,0.6509999999999999,0.70125,0.6402500000000001,0.73275,0.57075,0.9345,0.84575,0.866,0.8165,0.8045,0.735,0.22617290458618872,0.5486030574591461,0.8141012124406959,0.5056300268265138,0.21435805522217832,0.17641642911702135,0.7446386448073802,0.002095696239773379
0.6485,0.6515000000000001,0.70125,0.6405,0.733,0.57175,0.93525,0.84575,0.8665,0.8170000000000001,0.80475,0.73575,0.18447548761201898,0.5828413284132842,0.7935951502372167,0.5222520103578856,0.2772713736218682,0.17271811920434102,0.7514942548812549,0.003568573704071122
0.64875,0.652,0.70125,0.64075,0.7332500000000001,0.57275,0.9359999999999999,0.84575,0.867,0.8175,0.805,0.7365,0.1578545071164998,0.5918819188191882,0.7640748550342646,0.5519511462068297,0.3573726559413414,0.17420405279352222,0.7477556694590708,0.0014737442971956964
0.64875,0.65225,0.70125,0.6409999999999999,0.7334999999999999,0.57325,0.93675,0.846,0.86725,0.8175,0.805,0.737,0.17119135477069058,0.5658144438587243,0.7581180811808118,0.5707774792395024,0.42168602950357437,0.17643060441657102,0.7490014210937959,0.0018912229315315096
0.64875,0.6525,0.70125,0.64125,0.73375,0.57375,0.9375,0.84625,0.8675,0.8175,0.805,0.7375,0.18863995782814974,0.5415919873484449,0.7561412756984713,0.5823354180798962,0.47742031563317655,0.17790237189900382,0.7471314708592693,0.0031470136763653888
0.64875,0.6525,0.70125,0.64125,0.7334999999999999,0.5735,0.9377500000000001,0.84625,0.867,0.8177500000000001,0.805,0.73725,0.2218239325250395,0.5272799156562994,0.7665524512387981,0.5956508788734914,0.5156687511414546,0.1727133941044911,0.7490020786172303,0.0025166170609299235
0.64875,0.6525,0.70125,0.64125,0.7332500000000001,0.57325,0.938,0.84625,0.8665,0.818,0.805,0.737,0.26505007907221934,0.5018977332630469,0.7660516605166052,0.6047363714973648,0.5336014286120284,0.17495411183428838,0.7483798603233024,0.0020941610853281462
0.64875,0.6525,0.70125,0.64125,0.733,0.573,0.93825,0.84625,0.866,0.81825,0.805,0.73675,0.3025303110173959,0.49211913547706904,0.7697680548234054,0.6074471240933589,0.5270777465728407,0.17495411183428838,0.7483798603233024,0.0020941610853281462
0.64875,0.6525,0.70125,0.64125,0.73275,0.57275,0.9384999999999999,0.84625,0.8654999999999999,0.8184999999999999,0.805,0.7365,0.30237216657880867,0.4708487084870849,0.7643647865050078,0.6045278505616889,0.5065236802920633,0.1727133941044911,0.7490014210937959,0.0014746296578197118
0.64875,0.6525,0.70125,0.64125,0.7325,0.5725,0.93875,0.84625,0.865,0.81875,0.805,0.73625,0.31270426989984185,0.4554823405376911,0.7709014232999473,0.5584450396573959,0.508579086966731,0.1756805453758049,0.7433928854370851,0.0035659679117412417
0.64875,0.6525,0.70125,0.64125,0.7325,0.5725,0.93875,0.84625,0.865,0.81875,0.805,0.73625,0.31478650500790717,0.4453347390616763,0.7599894570374275,0.5065236816897629,0.5147155182856377,0.17940719669478342,0.7440151037310131,0.0027254351209336017
0.64875,0.6525,0.70125,0.64125,0.7325,0.5725,0.93875,0.84625,0.865,0.81875,0.805,0.73625,0.302293094359515,0.4404849762783342,0.7581180811808118,0.455883229655085,0.5409293998650754,0.17940719669478342,0.7440151037310131,0.0027254351209336017
0.6485,0.65225,0.70125,0.6409999999999999,0.73225,0.5725,0.9377500000000001,0.84575,0.8652500000000001,0.8184999999999999,0.80525,0.736,0.28616236162361625,0.4419346336320506,0.7512124406958356,0.40291927539526945,0.5738456944330558,0.17046796046764515,0.7334189356646506,0.007755145004614437
0.64825,0.652,0.70125,0.64075,0.732,0.5725,0.93675,0.8452500000000001,0.8654999999999999,0.81825,0.8055,0.73575,0.31971534001054297,0.4672641012124407,0.7516868740115972,0.35859398504647816,0.6092940107641504,0.17046796046764515,0.7334189356646506,0.007755145004614437
0.648,0.6517499999999999,0.70125,0.6405,0.73175,0.5725,0.9357500000000001,0.8447499999999999,0.86575,0.818,0.8057500000000001,0.7354999999999999,0.34180284659989457,0.5004480759093305,0.7907485503426462,0.38990169885724085,0.6352100071562218,0.1704632445605965,0.7103605944380061,0.008173491795257216
0.64775,0.6515000000000001,0.70125,0.6402500000000001,0.7315,0.5725,0.93475,0.84425,0.866,0.8177500000000001,0.8059999999999999,0.7352500000000001,0.3686083289404323,0.49428044280442807,0.7580126515550869,0.41218349745432314,0.6201370255741749,0.1764069881101228,0.7190874697932768,0.009434973198810488
0.6475,0.65125,0.70125,0.64,0.73125,0.5725,0.93375,0.84375,0.86625,0.8175,0.80625,0.735,0.39907749077490773,0.5073537163943068,0.7569056404849763,0.44226988414002344,0.603783138175648,0.14512676275411546,0.7845443067486372,0.028826441999883906
0.6475,0.65125,0.70125,0.64,0.73125,0.5725,0.93375,0.84375,0.86625,0.8175,0.80625,0.735,0.4414865577227201,0.5126779124934107,0.7678703215603584,0.47396484902049213,0.579952336697441,0.10563374390528764,0.7795777382956014,0.0729813045265519
0.6475,0.65125,0.70125,0.64,0.73125,0.5725,0.93375,0.84375,0.86625,0.8175,0.80625,0.735,0.45772272008434367,0.5076172904586189,0.7762783342119135,0.5056300265935638,0.5534703593345832,0.3156694790816427,0.7092227617378203,0.1578102971484911
0.6475,0.65125,0.70125,0.64,0.73125,0.5725,0.93375,0.84375,0.86625,0.8175,0.80625,0.735,0.4707696362677912,0.48769109119662624,0.7323405376910912,0.5044682751315701,0.5101876673745238,0.32309444031330165,0.6980122656587446,0.16347091448348317
0.64725,0.65075,0.701,0.63975,0.73075,0.5720000000000001,0.9327500000000001,0.8434999999999999,0.8652500000000001,0.8165,0.80525,0.7347499999999999,0.4727200843437006,0.4988929889298893,0.7677648919346336,0.5083705689429291,0.5086684537808706,0.32309444031330165,0.6980122656587446,0.16347091448348317
0.647,0.6502500000000001,0.70075,0.6395000000000001,0.7302500000000001,0.5715,0.93175,0.84325,0.86425,0.8155,0.80425,0.7345,0.47480231945176593,0.49646810753821824,0.7730627306273063,0.5075960678517917,0.5087280308416388,0.3371707058150076,0.6886684399325926,0.17101926359705283
0.6467499999999999,0.6497499999999999,0.7005,0.63925,0.7297499999999999,0.5710000000000001,0.9307500000000001,0.843,0.8632500000000001,0.8145,0.80325,0.73425,0.46850289931470745,0.49609910384818134,0.7709541381128098,0.5065832587796498,0.5087578194302604,0.3601531410377036,0.6718474356265025,0.1827570822768857
0.6452500000000001,0.6485,0.69975,0.63825,0.7284999999999999,0.56875,0.92875,0.8420000000000001,0.86275,0.8122499999999999,0.8015000000000001,0.73375,0.4680284659989457,0.49678439641539274,0.7702424881391671,0.5049151026796697,0.5073279713695219,0.3601531410377036,0.6718474356265025,0.1827570822768857
0.64375,0.64725,0.6990000000000001,0.63725,0.72725,0.5665,0.92675,0.841,0.86225,0.81,0.79975,0.7332500000000001,0.46884554559831315,0.4974169741697417,0.7707169214549288,0.5033065236404576,0.5065236819227128,0.3720264620300076,0.6662402150166611,0.19113377293751346
0.6425,0.6465000000000001,0.6984999999999999,0.6365,0.7265,0.56475,0.9257500000000001,0.84025,0.86275,0.80875,0.799,0.733,0.46823932525039536,0.4978650500790722,0.7699261992619926,0.5021149835607235,0.5057491808315754,0.39870249125833546,0.6525395229794346,0.20729112922199863
0.64125,0.64575,0.698,0.63575,0.72575,0.563,0.92475,0.8395,0.8632500000000001,0.8075,0.79825,0.73275,0.46831839746968895,0.49847127042698997,0.7692936215076436,0.5008638665366961,0.5047959487328456,0.41425052424247405,0.6350936702856783,0.2211306974143915
0.64,0.645,0.6975,0.635,0.725,0.56125,0.92375,0.83875,0.86375,0.80625,0.7975,0.7325,0.4681075382182393,0.4988929889298893,0.7690300474433316,0.5005659815240423,0.5044682751898076,0.4164629005659731,0.6375904492137447,0.22615499984887993
0.64,0.645,0.6975,0.635,0.725,0.56125,0.92375,0.83875,0.86375,0.80625,0.7975,0.7325,0.46784396415392726,0.49849762783342116,0.7689246178176068,0.5004468275189807,0.5041703901189163,0.4164629005659731,0.6375904492137447,0.22615499984887993
0.64,0.645,0.6975,0.635,0.725,0.56125,0.92375,0.83875,0.86375,0.80625,0.7975,0.7325,0.4673695308381655,0.4986294148655772,0.7687928307854507,0.5005957700253076,0.5036937740695514,0.4320109335501118,0.6251295911003323,0.23997606545998074
0.64,0.645,0.6975,0.635,0.725,0.56125,0.92375,0.83875,0.86375,0.80625,0.7975,0.7325,0.46721138639957827,0.49849762783342116,0.7689773326304692,0.5010425975442885,0.503008638598685,0.4379168946864413,0.6213903481547136,0.2452181044077542
0.64,0.645,0.6975,0.635,0.725,0.56125,0.92375,0.83875,0.86375,0.80625,0.7975,0.7325,0.46715867158671587,0.49810226673695307,0.7691881918819188,0.5014000595594731,0.5025022340771735,0.4379168946864413,0.6213903481547136,0.2452181044077542
0.64,0.64425,0.6975,0.6345000000000001,0.7247499999999999,0.56025,0.9235,0.83825,0.8632500000000001,0.8057500000000001,0.7975,0.7325,0.4677648919346336,0.49749604638903533,0.7694517659462309,0.5018170985480697,0.5020851950594581,0.44309170637420553,0.6145406635273197,0.251504784193692
0.64,0.6435,0.6975,0.634,0.7245,0.55925,0.92325,0.8377500000000001,0.86275,0.80525,0.7975,0.7325,0.46752767527675276,0.4977332630469162,0.769583552978387,0.5020851950594581,0.5014000595594731,0.4460588576455195,0.60955763378171,0.2565317162418724
0.64,0.64275,0.6975,0.6335000000000001,0.72425,0.55825,0.9229999999999999,0.8372499999999999,0.86225,0.80475,0.7975,0.7325,0.4673958882445967,0.4976805482340538,0.7693199789140748,0.5021447720619889,0.501012809043023,0.44752118412105363,0.6095582913051445,0.26113858636134013
0.64,0.642,0.6975,0.633,0.7240000000000001,0.55725,0.9227500000000001,0.83675,0.86175,0.80425,0.7975,0.7325,0.4673958882445967,0.4976541908276226,0.768950975224038,0.5021149835607235,0.5007745010329,0.4623333241711746,0.6095661893219294,0.27600690257316207
0.64,0.64125,0.6975,0.6325,0.72375,0.55625,0.9225,0.83625,0.86125,0.80375,0.7975,0.7325,0.4673431734317343,0.4978914074855034,0.7687664733790196,0.5020554065581928,0.5004766160202462,0.4675270178727361,0.6052086732229901,0.28061635069337065
0.64,0.64125,0.6975,0.6325,0.72375,0.55625,0.9225,0.83625,0.86125,0.80375,0.7975,0.7325,0.46710595677385347,0.49810226673695307,0.7688455455983132,0.501787310075923,0.4999702114987346,0.4675270178727361,0.6052086732229901,0.28061635069337065
0.64,0.64125,0.6975,0.6325,0.72375,0.55625,0.9225,0.83625,0.86125,0.80375,0.7975,0.7325,0.4673431734317343,0.4982076963626779,0.7689773326304692,0.5016681560708615,0.4998212689924077,0.4793767409441944,0.6027224224054468,0.2940219955711376
0.6395000000000001,0.64075,0.6970000000000001,0.63225,0.7234999999999999,0.5557500000000001,0.922,0.83575,0.86075,0.8029999999999999,0.7977500000000001,0.7325,0.4676594623089088,0.49841855561412757,0.7691091196626252,0.5014596365620038,0.4997021149873462,0.5097180411574582,0.6014918170164266,0.32459846467245285
0.639,0.6402500000000001,0.6965,0.632,0.7232500000000001,0.55525,0.9215000000000001,0.83525,0.8602500000000001,0.8022499999999999,0.7979999999999999,0.7325,0.46752767527675276,0.4982867685819715,0.7693990511333685,0.5012809055544115,0.4994638069772231,0.5156617847069844,0.5965074799595174,0.3281557801361226
0.6385000000000001,0.63975,0.696,0.6317499999999999,0.723,0.55475,0.9209999999999999,0.83475,0.8597499999999999,0.8015000000000001,0.79825,0.7325,0.4673695308381655,0.4983131259884027,0.7693990511333685,0.5010723860455538,0.4990765564607731,0.5266858931040844,0.6027527148968564,0.3545347333444273
0.638,0.639,0.6955,0.6317499999999999,0.7225,0.55325,0.92,0.8340000000000001,0.8595,0.80025,0.7985,0.7325,0.46747496046389037,0.49844491302055877,0.7692672641012124,0.5007745010329,0.49898719095697697,0.5199826495068934,0.6177103519383353,0.3555734598677504
0.6375,0.63825,0.695,0.6317499999999999,0.722,0.55175,0.919,0.83325,0.85925,0.799,0.79875,0.7325,0.4673695308381655,0.49812862414338427,0.7689773326304692,0.5005659815240423,0.49868930597344185,0.5199826495068934,0.6177103519383353,0.3555734598677504
0.6375,0.638,0.695,0.632,0.72175,0.5507500000000001,0.9185,0.833,0.8595,0.7985,0.79875,0.7325,0.4669478123352662,0.4977859778597786,0.7690300474433316,0.5003276735139193,0.49833184395825725,0.5199826495068934,0.6177103519383353,0.3555734598677504
0.6375,0.63775,0.695,0.63225,0.7215,0.54975,0.9179999999999999,0.8327500000000001,0.8597499999999999,0.7979999999999999,0.79875,0.7325,0.4667105956773854,0.49810226673695307,0.7688719030047444,0.5,0.49803395894560337,0.5177702731833943,0.6183352080615715,0.3524258056614267
0.6375,0.6375,0.695,0.6325,0.72125,0.54875,0.9175,0.8325,0.86,0.7975,0.79875,0.7325,0.46684238270954137,0.49807590933052187,0.7690036900369004,0.4996723264860808,0.4977658624050962,0.5155201236394998,0.6289287382986259,0.3517904052365452
0.6375,0.6375,0.695,0.6325,0.72125,0.54875,0.9175,0.8325,0.86,0.7975,0.79875,0.7325,0.4666315234580917,0.4977859778597786,0.7685028993147074,0.49961274948355,0.49728924638485006,0.5155201236394998,0.6289287382986259,0.3517904052365452
0.6375,0.6375,0.695,0.63225,0.721,0.54875,0.917,0.8320000000000001,0.86,0.797,0.7985,0.732,0.4666315234580917,0.4979441222983658,0.7681602530311018,0.4994638069772231,0.49702114984434287,0.5162937806011118,0.6239424286714131,0.3513736121280737
0.6375,0.6375,0.695,0.632,0.72075,0.54875,0.9165000000000001,0.8315,0.86,0.7965000000000001,0.79825,0.7315,0.4666842382709541,0.49841855561412757,0.7677912493410648,0.4994638069772231,0.4963062257557362,0.5080715461013927,0.6357810452841882,0.35325176374886774
0.6375,0.6375,0.695,0.6317499999999999,0.7204999999999999,0.54875,0.9159999999999999,0.831,0.86,0.7959999999999999,0.7979999999999999,0.731,0.46707959936742227,0.4983131259884027,0.767817606747496,0.4994340184759577,0.4955615132241016,0.49616516779574177,0.6507426274662746,0.3582534782384671
0.6375,0.6375,0.695,0.6315,0.7202500000000001,0.54875,0.9155,0.8305,0.86,0.7955,0.7977500000000001,0.7304999999999999,0.46723774380600946,0.49807590933052187,0.7675803900896152,0.4995233839797539,0.49478701224943905,0.5013730276040517,0.6544838429821971,0.359713788610858
0.6375,0.6375,0.695,0.63125,0.72,0.54875,0.915,0.83,0.86,0.795,0.7975,0.73,0.4669741697416974,0.49807590933052187,0.7680021085925145,0.4996723264860808,0.4943103962874304,0.5013730276040517,0.6544838429821971,0.359713788610858
0.6375,0.6375,0.695,0.63125,0.72,0.54875,0.915,0.83,0.86,0.795,0.7975,0.73,0.46718502899314707,0.49807590933052187,0.7686346863468635,0.4997616919898769,0.49392314574186164,0.4946508928002623,0.6681963781768159,0.36366940783579726
0.6375,0.63725,0.695,0.63125,0.7197499999999999,0.5485,0.91475,0.82975,0.86,0.79425,0.7972499999999999,0.72925,0.4676331049024776,0.4975751186083289,0.7690564048497628,0.4996723264860808,0.49445933882287607,0.4946508928002623,0.6681963781768159,0.36366940783579726
0.6375,0.637,0.695,0.63125,0.7195,0.54825,0.9145,0.8295,0.86,0.7935,0.797,0.7284999999999999,0.46752767527675276,0.49725882973115443,0.7692409066947812,0.4999106344962038,0.494995531845653,0.4961462765891434,0.6675748174063225,0.36430375218029315
0.6375,0.6367499999999999,0.695,0.63125,0.71925,0.5479999999999999,0.91425,0.8292499999999999,0.86,0.7927500000000001,0.79675,0.72775,0.46768581971534,0.49723247232472323,0.7695308381655246,0.5001191540050616,0.49577003282031545,0.496127385382545,0.6781749383488623,0.3667979851013208
0.6375,0.6365,0.695,0.63125,0.7190000000000001,0.54775,0.914,0.8290000000000001,0.86,0.792,0.7965000000000001,0.727,0.46792303637322086,0.4973115445440169,0.7695044807590933,0.5002978850126538,0.4962466487823241,0.49240545916341644,0.6787978141662249,0.36909688417669173
0.6375,0.63625,0.695,0.63125,0.71875,0.5475,0.91375,0.82875,0.86,0.79125,0.79625,0.72625,0.46794939377965206,0.49712704269899843,0.7694517659462309,0.5007149240303692,0.49654453385321545,0.4953490033210832,0.6800455461068236,0.3705482641851202
0.6375,0.63625,0.695,0.63125,0.71875,0.5475,0.91375,0.82875,0.86,0.79125,0.79625,0.72625,0.4677121771217712,0.49723247232472323,0.7688455455983132,0.5012809055544115,0.4961572833658842,0.4953490033210832,0.6800455461068236,0.3705482641851202
0.6375,0.63625,0.695,0.63125,0.71875,0.5475,0.91375,0.82875,0.86,0.79125,0.79625,0.72625,0.46747496046389037,0.4977596204533474,0.7683447548761202,0.5016979445430082,0.4957104558760222,0.5005332468229449,0.6837893917164842,0.3793450353021866
0.6375,0.63625,0.695,0.63125,0.71875,0.5475,0.91375,0.82875,0.86,0.79125,0.79625,0.72625,0.4673431734317343,0.49810226673695307,0.7682393252503954,0.5020256180569274,0.4948465893684448,0.5175483313824677,0.6944000562406868,0.39858318584667846
0.63725,0.63625,0.69475,0.631,0.7184999999999999,0.54725,0.9129999999999999,0.8284999999999999,0.85925,0.7907500000000001,0.79625,0.7254999999999999,0.46752767527675276,0.49807590933052187,0.7682393252503954,0.5022937145683158,0.49419124234060635,0.5242185176663118,0.6968974926921879,0.402769816700627
0.637,0.63625,0.6945,0.63075,0.71825,0.547,0.9122499999999999,0.82825,0.8584999999999999,0.79025,0.79625,0.7247499999999999,0.4673958882445967,0.4977859778597786,0.7676331049024776,0.502621388082235,0.4930294908786126,0.5242185176663118,0.6968974926921879,0.402769816700627
0.6367499999999999,0.63625,0.6942499999999999,0.6305,0.718,0.54675,0.9115000000000001,0.828,0.85775,0.78975,0.79625,0.7240000000000001,0.46758039008961516,0.4976805482340538,0.7679230363732209,0.5030384270708317,0.49171879670646074,0.5323746375393371,0.7025145838891179,0.41196824112715336
0.6365,0.63625,0.6940000000000001,0.63025,0.7177500000000001,0.5465,0.9107500000000001,0.8277500000000001,0.857,0.78925,0.79625,0.7232500000000001,0.46818661043753296,0.4974169741697417,0.7685292567211386,0.5034256776164004,0.4901995831128074,0.5323746375393371,0.7025145838891179,0.41196824112715336
0.63625,0.63625,0.69375,0.63,0.7175,0.54625,0.91,0.8275,0.85625,0.78875,0.79625,0.7225,0.46768581971534,0.49752240379546653,0.7687401159725883,0.5037235626290543,0.4892165626001685,0.5360682315449689,0.7075048463925082,0.4165667142164875
0.636,0.636,0.6934999999999999,0.62975,0.7165,0.54625,0.90975,0.8270000000000001,0.85625,0.787,0.7957500000000001,0.7204999999999999,0.46779124934106486,0.497838692672641,0.7685292567211386,0.5037533511012009,0.48796544560525984,0.5642254784554293,0.7268410557539725,0.4351838114131157
0.63575,0.63575,0.69325,0.6295000000000001,0.7155,0.54625,0.9095,0.8265,0.85625,0.78525,0.79525,0.7184999999999999,0.4691881918819188,0.49881391671059566,0.7691091196626252,0.5037533511012009,0.487548406529307,0.5694191721569907,0.7368215730251831,0.443546863020543
0.6355,0.6355,0.693,0.62925,0.7145,0.54625,0.90925,0.826,0.85625,0.7835,0.79475,0.7165,0.4705324196099104,0.4989193463363205,0.7699261992619926,0.5036639856265235,0.48879952364069057,0.6020247788280961,0.7449499164013103,0.46987168218351805
0.63525,0.63525,0.6927500000000001,0.629,0.7134999999999999,0.54625,0.909,0.8255,0.85625,0.78175,0.79425,0.7145,0.4711913547706906,0.4993147074327886,0.770347917764892,0.5034554661467845,0.4911528152406559,0.6020247788280961,0.7449499164013103,0.46987168218351805
0.635,0.635,0.6925,0.62875,0.7125,0.54625,0.90875,0.825,0.85625,0.78,0.79375,0.7125,0.4721665788086452,0.49955192409066945,0.770479704797048,0.5033065236113389,0.49368483781909483,0.6169077586047607,0.7929562902633025,0.47044000562300603
0.635,0.635,0.6925,0.62875,0.7125,0.54625,0.90875,0.825,0.85625,0.78,0.79375,0.7125,0.4721138639957828,0.49918292040063256,0.7698734844491302,0.5033065236113389,0.4963658028747419,0.6176578084527256,0.8010556871371685,0.46414641234842874
0.635,0.635,0.6925,0.62875,0.7125,0.54625,0.90875,0.825,0.85625,0.78,0.79375,0.7125,0.4705587770163416,0.49876120189773326,0.7696362677912494,0.503008638598685,0.4982126898949582,0.6176578084527256,0.8010556871371685,0.46414641234842874
0.635,0.635,0.6925,0.62875,0.7125,0.54625,0.90875,0.825,0.85625,0.78,0.79375,0.7125,0.46921454928835005,0.4992092778070638,0.7685556141275698,0.5023532915708466,0.4982126898949582,0.6169030335049108,0.8178924797412582,0.4710298688674514
0.635,0.63525,0.6925,0.62875,0.7125,0.54625,0.90875,0.8255,0.85625,0.7785,0.79375,0.71025,0.46866104375329465,0.4989720611491829,0.7675276752767528,0.5018766755214817,0.49666368785827697,0.6235921109953533,0.8129088002077836,0.4724999817303387
0.635,0.6355,0.6925,0.62875,0.7125,0.54625,0.90875,0.826,0.85625,0.777,0.79375,0.708,0.46855561412756985,0.4986557722720084,0.7673431734317343,0.5012809055252928,0.4940720883355448,0.6235921109953533,0.8129088002077836,0.4724999817303387
0.635,0.63575,0.6925,0.62875,0.7125,0.54625,0.90875,0.8265,0.85625,0.7755,0.79375,0.70575,0.46858197153400105,0.49868212967843967,0.7682656826568266,0.5008936550379616,0.4910038726760915,0.6303142457991425,0.7960726573915586,0.46038975840345464
0.635,0.636,0.6925,0.62875,0.7125,0.54625,0.90875,0.8270000000000001,0.85625,0.774,0.79375,0.7034999999999999,0.46887190300474435,0.4986294148655772,0.768450184501845,0.5005957700253076,0.4885314270419459,0.6303189617061912,0.7861033180187359,0.45888914096301336
0.635,0.63625,0.6925,0.62875,0.7125,0.54625,0.90875,0.8275,0.85625,0.7725,0.79375,0.70125,0.46900369003690034,0.4982604111755403,0.7689246178176068,0.5002978850126538,0.48644623201160647,0.6318049044881737,0.7979452377198236,0.4588739402871875
0.635,0.63625,0.6925,0.62875,0.7125,0.54625,0.90875,0.8275,0.85625,0.7725,0.79375,0.70125,0.4695044807590933,0.4978914074855034,0.7691354770690564,0.4998510574936731,0.48504617230653974,0.6117612883232946,0.8160212144598625,0.4519175996640595
0.635,0.63625,0.6925,0.62875,0.7125,0.54625,0.90875,0.8275,0.85625,0.7725,0.79375,0.70125,0.4695044807590933,0.4979441222983658,0.7687928307854507,0.4999702114987346,0.48430145957107396,0.6117612883232946,0.8160212144598625,0.4519175996640595
0.63525,0.6367499999999999,0.693,0.62875,0.713,0.54675,0.9085,0.8275,0.8554999999999999,0.7709999999999999,0.7929999999999999,0.6990000000000001,0.4709014232999473,0.49749604638903533,0.7685028993147074,0.5004170390468341,0.48462913299763694,0.6065817515356804,0.8266154099559213,0.44876339325975456
0.6355,0.63725,0.6934999999999999,0.62875,0.7134999999999999,0.54725,0.90825,0.8275,0.8547499999999999,0.7695000000000001,0.7922499999999999,0.69675,0.4714285714285714,0.4973379019504481,0.7687137585661571,0.5008638665949336,0.4862675005963518,0.5961943641325576,0.8334657521067496,0.4430962740163234
0.63575,0.63775,0.6940000000000001,0.62875,0.7140000000000001,0.54775,0.9079999999999999,0.8275,0.8540000000000001,0.768,0.7915000000000001,0.6945,0.4717712177121771,0.49725882973115443,0.7688191881918819,0.5016085791556869,0.48796544513935997,0.5456536297729828,0.8721092088562775,0.4394351357928408
0.636,0.63825,0.6945,0.62875,0.7145,0.54825,0.9077500000000001,0.8275,0.8532500000000001,0.7665000000000001,0.7907500000000001,0.6922499999999999,0.47156035846072747,0.4973906167633105,0.7691091196626252,0.5027107536733875,0.4892761393115118,0.5774997363964237,0.8540542960728547,0.46450711673647105
0.63625,0.63875,0.69475,0.62875,0.71475,0.54975,0.9072499999999999,0.8275,0.85175,0.76425,0.7895,0.68675,0.4718239325250395,0.49720611491829203,0.7698734844491302,0.5045874291366317,0.4894846588494883,0.5774997363964237,0.8540542960728547,0.46450711673647105
0.63625,0.63875,0.6945,0.62875,0.7145,0.5507500000000001,0.907,0.8275,0.851,0.7635,0.789,0.6835,0.47153400105429627,0.4979441222983658,0.770479704797048,0.5058981231923085,0.48927613954446175,0.5841463155666208,0.842211053589328,0.4703717627142795
0.63625,0.63875,0.6942499999999999,0.62875,0.7142499999999999,0.55175,0.90675,0.8275,0.8502500000000001,0.76275,0.7885,0.68025,0.47232472324723246,0.49876120189773326,0.7701634159198735,0.506672624166971,0.4881441764381397,0.5856039169423051,0.8341136370213356,0.47623165500694375
0.63625,0.63875,0.6940000000000001,0.62875,0.7140000000000001,0.55275,0.9065000000000001,0.8275,0.8495,0.762,0.7879999999999999,0.677,0.47269372693726935,0.49915656299420136,0.7697944122298366,0.5069407206492408,0.48698242485967097,0.5967083060728472,0.8104343925476326,0.48395951131788506
0.63625,0.63875,0.69375,0.62875,0.71375,0.55375,0.90625,0.8275,0.84875,0.76125,0.7875,0.67375,0.47374802319451764,0.49949920927780705,0.7699261992619926,0.506672624166971,0.486654751433108,0.6041049258982079,0.8054533431078962,0.4879286160805803
0.63625,0.63875,0.69375,0.62875,0.71375,0.55375,0.90625,0.8275,0.84875,0.76125,0.7875,0.67375,0.47469688982604114,0.49981549815498155,0.7697416974169742,0.5052427762227076,0.4874292526407204,0.6099872891136916,0.8048370425248795,0.49814947189535713
0.63625,0.63875,0.69375,0.62875,0.71375,0.55375,0.90625,0.8275,0.84875,0.76125,0.7875,0.67375,0.4754348972061149,0.5003690036900369,0.7696099103848182,0.5038725051062625,0.48903783165081366,0.6166622004973856,0.8067102881121488,0.4993890125010247
0.63625,0.63875,0.69375,0.62875,0.71375,0.55375,0.90625,0.8275,0.84875,0.76125,0.7875,0.67375,0.47567211386399577,0.500131787032156,0.7697944122298366,0.5025022340771735,0.49079535325459006,0.6166622004973856,0.8067102881121488,0.4993890125010247
0.6367499999999999,0.63925,0.6940000000000001,0.62875,0.7145,0.555,0.9065000000000001,0.8272499999999999,0.8484999999999999,0.7602500000000001,0.78675,0.67175,0.47633104902477597,0.5001581444385872,0.7697416974169742,0.5013106940265581,0.4932677988887357,0.5846791395207075,0.8347556042250104,0.4974256928937455
0.63725,0.63975,0.6942499999999999,0.62875,0.71525,0.55625,0.90675,0.8270000000000001,0.8482500000000001,0.75925,0.7859999999999999,0.66975,0.4761201897733263,0.5002372166578809,0.7696362677912494,0.5003872504873312,0.49585939841146787,0.4991315192933456,0.7692875739001225,0.4944784160447948
0.63775,0.6402500000000001,0.6945,0.62875,0.716,0.5575,0.907,0.82675,0.848,0.75825,0.78525,0.6677500000000001,0.4749868212967844,0.5002372166578809,0.7696099103848182,0.4995233839506351,0.49800417041521927,0.5057969804773398,0.7661731870777398,0.499088331328382
0.63825,0.64075,0.69475,0.62875,0.71675,0.55875,0.9072499999999999,0.8265,0.84775,0.75725,0.7845,0.6657500000000001,0.4739061676331049,0.4997100685292567,0.7690300474433316,0.4986893059443231,0.4991361334341851,0.5057969804773398,0.7661731870777398,0.499088331328382
0.63825,0.6409999999999999,0.695,0.629,0.7175,0.5605,0.9079999999999999,0.826,0.847,0.75625,0.7835,0.6629999999999999,0.4734844491302056,0.49942013705851346,0.7690564048497628,0.49824247842534236,0.5002978850126538,0.49462649510570655,0.7649307230601876,0.5017942210217279
0.63775,0.64075,0.695,0.62925,0.7175,0.561,0.9085,0.82575,0.8465,0.75625,0.78325,0.6622499999999999,0.4732472324723247,0.49915656299420136,0.7695308381655246,0.4983020554278731,0.5005659815240423,0.4886308030362352,0.7512208179593073,0.5105822232307304
0.63725,0.6405,0.695,0.6295000000000001,0.7175,0.5615,0.909,0.8255,0.846,0.75625,0.7829999999999999,0.6615000000000001,0.47301001581444385,0.4990247759620453,0.7693199789140748,0.4985403634379962,0.5003276735139193,0.4849230429238549,0.7431161608979648,0.5103792387576187
0.6367499999999999,0.6402500000000001,0.695,0.62975,0.7175,0.562,0.9095,0.82525,0.8454999999999999,0.75625,0.7827500000000001,0.6607500000000001,0.4738270954138113,0.498603057459146,0.7688719030047444,0.4985701519392616,0.5004170390177154,0.4760074230031649,0.7462305554559172,0.5105977574056254
0.6365,0.64,0.695,0.6295000000000001,0.7172499999999999,0.56275,0.90975,0.82525,0.8445,0.7559999999999999,0.78175,0.65975,0.4739061676331049,0.4985767000527148,0.7692936215076436,0.49880845994938466,0.5007745010329,0.4700731204605373,0.7306401720099871,0.5032954075280411
0.6367499999999999,0.64,0.695,0.629,0.7170000000000001,0.563,0.9095,0.8255,0.8440000000000001,0.75575,0.7809999999999999,0.6595,0.47401159725882974,0.4988666315234581,0.769082762256194,0.4988978254531808,0.500536193022777,0.47303083072495256,0.7300153158867511,0.5024552691131168
0.637,0.64,0.695,0.6285000000000001,0.71675,0.56325,0.90925,0.82575,0.8434999999999999,0.7555,0.7802500000000001,0.65925,0.4738798102266737,0.49913020558777016,0.7688455455983132,0.4986297289126736,0.5004468275189807,0.47303083072495256,0.7300153158867511,0.5024552691131168
0.63725,0.64,0.695,0.628,0.7165,0.5635,0.909,0.826,0.843,0.7552500000000001,0.7795000000000001,0.659,0.47398523985239854,0.4990247759620453,0.7690300474433316,0.4981233243911621,0.500238308010123,0.47303083072495256,0.7300153158867511,0.5024552691131168
0.6375,0.64,0.695,0.6275,0.71625,0.56375,0.90875,0.82625,0.8425,0.755,0.77875,0.65875,0.47406431207169214,0.49952556668423825,0.768950975224038,0.4980041703861005,0.5002085195088577,0.48120584180457626,0.7212897555783496,0.5024709250416403
0.6375,0.64,0.695,0.6275,0.71625,0.56375,0.90875,0.82625,0.8425,0.755,0.77875,0.65875,0.47411702688455454,0.4989984185556141,0.7691618344754876,0.4976467083709159,0.4999106344962038,0.48120584180457626,0.7212897555783496,0.5024709250416403
0.63725,0.6395000000000001,0.6945,0.62725,0.716,0.5635,0.9079999999999999,0.8255,0.8425,0.7547499999999999,0.779,0.6585,0.47369530838165524,0.4986557722720084,0.769583552978387,0.4978552278797736,0.4998510574936731,0.48490887681710654,0.7150590016277109,0.5016425795243551
0.637,0.639,0.6940000000000001,0.627,0.71575,0.56325,0.9072499999999999,0.82475,0.8425,0.7545000000000001,0.77925,0.65825,0.4739588824459673,0.4989457037427517,0.7696889826041118,0.49839142093166927,0.4996425379848154,0.48786186198167186,0.7069569746601067,0.5060460152116495
0.6367499999999999,0.6385000000000001,0.6934999999999999,0.6267499999999999,0.7155,0.563,0.9065000000000001,0.8240000000000001,0.8425,0.75425,0.7795000000000001,0.6579999999999999,0.4742488139167106,0.49881391671059566,0.769715340010543,0.4988680369519154,0.4997319034886115,0.48786186198167186,0.7069569746601067,0.5060460152116495
0.6365,0.638,0.693,0.6265,0.71525,0.56275,0.90575,0.82325,0.8425,0.754,0.7797499999999999,0.6577500000000001,0.4738798102266737,0.4988666315234581,0.769583552978387,0.49916592196456927,0.4994935954784885,0.4789462420609819,0.7088242948008949,0.5083504937793835
0.63625,0.6375,0.6925,0.62625,0.715,0.5625,0.905,0.8225,0.8425,0.75375,0.78,0.6575,0.4738798102266737,0.49907749077490776,0.7695571955719558,0.4994638069772231,0.4993744414734269,0.4789462420609819,0.7088242948008949,0.5083504937793835
0.63625,0.6375,0.6925,0.62625,0.715,0.5625,0.905,0.8225,0.8425,0.75375,0.78,0.6575,0.4749077490774908,0.5000790722192936,0.7689773326304692,0.4993148644708962,0.4990467679595077,0.4685682956647576,0.7088131091669373,0.49748624679615583
0.63625,0.6375,0.6925,0.62625,0.715,0.5625,0.905,0.8225,0.8425,0.75375,0.78,0.6575,0.47467053241960994,0.4993410648392198,0.7693199789140748,0.4990467679595077,0.4990467679595077,0.4507228897166291,0.7200229399870085,0.4953906233438777
0.63625,0.6375,0.6925,0.62625,0.715,0.5625,0.905,0.8225,0.8425,0.75375,0.78,0.6575,0.47443331576172904,0.4992092778070638,0.7696099103848182,0.4988680369519154,0.4988978254531808,0.4507228897166291,0.7200229399870085,0.4953906233438777
0.6365,0.63775,0.6925,0.62625,0.715,0.56225,0.9047499999999999,0.8220000000000001,0.8425,0.75375,0.7797499999999999,0.6572499999999999,0.47443331576172904,0.4990247759620453,0.7700052714812863,0.4984807864354654,0.4988978254531808,0.44627452076318264,0.720023597510443,0.4958132632733311
0.6367499999999999,0.638,0.6925,0.62625,0.715,0.562,0.9045000000000001,0.8215,0.8425,0.75375,0.7795000000000001,0.657,0.47474960463890353,0.49905113336847656,0.770216130732736,0.4983318439291385,0.4991361334633039,0.44104776974827437,0.7324884007644631,0.49830831273771453
0.637,0.63825,0.6925,0.62625,0.715,0.56175,0.90425,0.821,0.8425,0.75375,0.77925,0.65675,0.4738270954138113,0.4978650500790722,0.7702424881391671,0.4984807864354654,0.4996425379848154,0.44104776974827437,0.7324884007644631,0.49830831273771453
0.63725,0.6385000000000001,0.6925,0.62625,0.715,0.5615,0.904,0.8205,0.8425,0.75375,0.779,0.6565000000000001,0.47335266209804955,0.4981813389562467,0.7697416974169742,0.4985701519392616,0.5001191540050616,0.4417931036891906,0.733734160134758,0.49977601964303164
0.63775,0.63875,0.6922499999999999,0.626,0.71475,0.56125,0.903,0.82,0.8422499999999999,0.7535,0.77875,0.6565000000000001,0.4731154454401687,0.49839219820769637,0.7692409066947812,0.4987488829468539,0.5004170390177154,0.4417931036891906,0.733734160134758,0.49977601964303164
0.638,0.63875,0.6920000000000001,0.62575,0.7145,0.56125,0.90225,0.82,0.8420000000000001,0.75325,0.77875,0.65675,0.4731681602530311,0.4978914074855034,0.7691354770690564,0.4991361334633039,0.5007447125316346,0.42989615719763696,0.7293648008784267,0.4970698427699317
0.63825,0.63875,0.69175,0.6255,0.7142499999999999,0.56125,0.9015000000000001,0.82,0.84175,0.753,0.77875,0.657,0.4724565102793885,0.4978914074855034,0.7686610437532946,0.4994340184759577,0.5007447125316346,0.42989615719763696,0.7293648008784267,0.4970698427699317
0.6385000000000001,0.63875,0.6915,0.62525,0.7140000000000001,0.56125,0.90075,0.82,0.8415,0.75275,0.77875,0.6572499999999999,0.4724037954665261,0.4980231945176595,0.768950975224038,0.49961274948355,0.500536193022777,0.44092026559473696,0.6975730013265962,0.5096806309952727
0.63875,0.63875,0.69125,0.625,0.71375,0.56125,0.9,0.82,0.84125,0.7525,0.77875,0.6575,0.4724565102793885,0.4977859778597786,0.7691091196626252,0.4998808459949385,0.5000893655037961,0.4386795570577409,0.7031835095536105,0.5132429039490735
0.63875,0.63875,0.69125,0.625,0.71375,0.56125,0.9,0.82,0.84125,0.7525,0.77875,0.6575,0.4724828676858197,0.4976541908276226,0.7691091196626252,0.5001191540050616,0.4996425379848154,0.4401702157467722,0.7044318990176438,0.5130319287323923
0.63875,0.63875,0.69125,0.625,0.71375,0.56125,0.9,0.82,0.84125,0.7525,0.77875,0.6575,0.4725355824986821,0.4978650500790722,0.7691881918819188,0.5002978850126538,0.4992850759696308,0.44238731717012103,0.7225098483279865,0.5176348855314338
0.6385000000000001,0.6385000000000001,0.69125,0.62475,0.71325,0.561,0.8995000000000001,0.8195,0.84075,0.75275,0.77875,0.6577500000000001,0.4731418028465999,0.4978914074855034,0.7694781233526621,0.4997319034594928,0.4998808460240572,0.44238731717012103,0.7225098483279865,0.5176348855314338
0.63825,0.63825,0.69125,0.6245,0.7127500000000001,0.5607500000000001,0.899,0.8190000000000001,0.84025,0.753,0.77875,0.6579999999999999,0.4731154454401687,0.4976278334211914,0.7693199789140748,0.4991361334341851,0.5007745010911374,0.44162310121540777,0.7237556076982814,0.518465003093376
0.638,0.638,0.69125,0.62425,0.7122499999999999,0.5605,0.8985,0.8184999999999999,0.83975,0.75325,0.77875,0.65825,0.47295730100158145,0.4973642593568793,0.7688982604111756,0.4983020553987544,0.501668156129099,0.439396549592359,0.7281183839846972,0.520567656494286
0.63775,0.63775,0.69125,0.624,0.71175,0.56025,0.898,0.818,0.8392499999999999,0.7535,0.77875,0.6585,0.4727464417501318,0.4977332630469162,0.7688191881918819,0.4971998808810539,0.502680965172122,0.4431232009113375,0.7274928780735962,0.5203609797100516
0.63725,0.63725,0.691,0.62375,0.711,0.55975,0.898,0.8172499999999999,0.83875,0.754,0.779,0.65925,0.4727991565629942,0.4976805482340538,0.7688719030047444,0.4959487637696703,0.5036044086822302,0.43865122484424407,0.722507218234248,0.5205736793286656
0.637,0.637,0.69075,0.62375,0.71075,0.5595,0.8985,0.8170000000000001,0.83875,0.75425,0.77925,0.65975,0.4723774380600949,0.4977332630469162,0.7686346863468635,0.49529341680006933,0.5037235626872918,0.43566990746618167,0.7243745383750364,0.5214128992977407
0.6367499999999999,0.6367499999999999,0.6905,0.62375,0.7105,0.55925,0.899,0.81675,0.83875,0.7545000000000001,0.7795000000000001,0.66025,0.4724037954665261,0.4979177648919346,0.7688982604111756,0.4949359547848847,0.5032171581366615,0.4297450459304526,0.726863419286318,0.5184961931967942
0.6365,0.6365,0.69025,0.62375,0.71025,0.5589999999999999,0.8995000000000001,0.8165,0.83875,0.7547499999999999,0.7797499999999999,0.6607500000000001,0.47227200843437006,0.49833948339483397,0.7690300474433316,0.4949359547848847,0.5028299076202115,0.41345641329804883,0.7150050537637961,0.5074538034508784
0.63625,0.63625,0.69,0.62375,0.71,0.55875,0.9,0.81625,0.83875,0.755,0.78,0.66125,0.4724828676858197,0.4979441222983658,0.7687401159725883,0.49496574325703135,0.5024426571037615,0.4075268266624698,0.7168736889514535,0.507029126794967
0.63625,0.63625,0.69,0.62375,0.71,0.55875,0.9,0.81625,0.83875,0.755,0.78,0.66125,0.4724301528729573,0.4979704797047971,0.768318397469689,0.49514447432286113,0.5021447721202263,0.4075268266624698,0.7168736889514535,0.507029126794967
0.63625,0.63625,0.69,0.62375,0.71,0.55875,0.9,0.81625,0.83875,0.755,0.78,0.66125,0.47306273062730625,0.4982867685819715,0.7684765419082762,0.4953827823329842,0.501787310075923,0.3896955868210898,0.7199861032035323,0.5072574399930162
0.63625,0.636,0.68975,0.62375,0.70975,0.5579999999999999,0.9002500000000001,0.816,0.84,0.7552500000000001,0.78,0.6622499999999999,0.47301001581444385,0.49812862414338427,0.7683711122825514,0.49520405126715444,0.5019362526113686,0.3934316791469668,0.7249704479960113,0.5055722056730366
0.63625,0.63575,0.6895,0.62375,0.7095,0.55725,0.9005,0.81575,0.84125,0.7555,0.78,0.66325,0.47298365840801265,0.497838692672641,0.7685292567211386,0.49484658919373237,0.5022043491227571,0.3934316791469668,0.7249704479960113,0.5055722056730366
0.63625,0.6355,0.6892499999999999,0.62375,0.7092499999999999,0.5565,0.90075,0.8155,0.8425,0.75575,0.78,0.66425,0.4724565102793885,0.4973115445440169,0.7687928307854507,0.49502532020132467,0.5022937146265533,0.3830254005372456,0.7312025169935191,0.5076804412131279
0.63625,0.63525,0.6890000000000001,0.62375,0.7090000000000001,0.5557500000000001,0.9009999999999999,0.81525,0.84375,0.7559999999999999,0.78,0.66525,0.4717448603057459,0.4969688982604112,0.7687928307854507,0.49547214774942416,0.501876675608838,0.37855814957000206,0.7442895308058974,0.5087119803021475
0.63625,0.635,0.68875,0.62375,0.70875,0.555,0.90125,0.815,0.845,0.75625,0.78,0.66625,0.4710332103321033,0.4962308908803374,0.7687137585661571,0.4959189752392862,0.5009234435974644,0.3741097806165556,0.7449130641466946,0.5105984045526286
0.63625,0.635,0.68875,0.62375,0.70875,0.555,0.90125,0.815,0.845,0.75625,0.78,0.66625,0.4707959936742225,0.49609910384818134,0.768950975224038,0.49663389932789287,0.49982126902152646,0.3741097806165556,0.7449130641466946,0.5105984045526286
0.63625,0.635,0.68875,0.62375,0.70875,0.555,0.90125,0.815,0.845,0.75625,0.78,0.66625,0.4710595677385345,0.49570374275171325,0.7687137585661571,0.49731903491523416,0.49842120949117213,0.3658355975968914,0.7075147169795968,0.5294522265349386
0.63625,0.635,0.68875,0.62375,0.70875,0.555,0.90125,0.815,0.845,0.75625,0.78,0.66625,0.4710859251449657,0.4962308908803374,0.7693199789140748,0.49782543943674573,0.49719988091017264,0.37176990013951905,0.7162429151173063,0.5307004487036757
0.636,0.63475,0.68875,0.62425,0.70825,0.55425,0.9015000000000001,0.8145,0.8447499999999999,0.7565000000000001,0.77925,0.66625,0.47158671586715867,0.4965735371639431,0.769847127042699,0.49806374741775006,0.49660411085574624,0.37176990013951905,0.7162429151173063,0.5307004487036757
0.63575,0.6345000000000001,0.68875,0.62475,0.7077500000000001,0.5535,0.9017499999999999,0.8140000000000001,0.8445,0.7567499999999999,0.7785,0.66625,0.4717712177121771,0.49678439641539274,0.7698998418555614,0.4983318439291385,0.496544533794978,0.37246801066034,0.7268449931590102,0.5434447609571179
0.6355,0.63425,0.68875,0.62525,0.7072499999999999,0.55275,0.902,0.8134999999999999,0.84425,0.757,0.77775,0.66625,0.47158671586715867,0.49681075382182394,0.7696099103848182,0.4986893059443231,0.49633601431523905,0.37246801066034,0.7268449931590102,0.5434447609571179
0.63525,0.634,0.68875,0.62575,0.70675,0.552,0.90225,0.813,0.8440000000000001,0.75725,0.777,0.66625,0.4717448603057459,0.49710068529256723,0.7698207696362678,0.4988978254531808,0.4962764372544708,0.37022257702349404,0.7293397917812031,0.5469964003195673
0.635,0.63375,0.68875,0.62625,0.70625,0.55125,0.9025,0.8125,0.84375,0.7575,0.77625,0.66625,0.47185028993147077,0.49720611491829203,0.7694781233526621,0.4990467679595077,0.4962466487823241,0.3620286747372719,0.7349535953609603,0.5538882631325867
0.635,0.63375,0.68875,0.62625,0.70625,0.55125,0.9025,0.8125,0.84375,0.7575,0.77625,0.66625,0.47187664733790197,0.4967053241960991,0.769346336320506,0.4991361334633039,0.4957998212342246,0.3649863758088861,0.7330869327436066,0.5572390976765546
0.635,0.63375,0.68875,0.62625,0.70625,0.55125,0.9025,0.8125,0.84375,0.7575,0.77625,0.66625,0.4717712177121771,0.49641539272535584,0.7692409066947812,0.4991361334633039,0.49514447426462366,0.36646759349101865,0.7305941066917174,0.5589088984007234
0.635,0.63375,0.68825,0.626,0.7065,0.551,0.903,0.8127500000000001,0.8434999999999999,0.757,0.7759999999999999,0.6655,0.47224565102793886,0.49612546125461254,0.7692409066947812,0.4992850759696308,0.4946082811836093,0.37312833876796414,0.7256110769461077,0.5622526196212924
0.635,0.63375,0.6877500000000001,0.62575,0.70675,0.5507500000000001,0.9035,0.813,0.84325,0.7565000000000001,0.77575,0.66475,0.47198207696362676,0.4962308908803374,0.7693726937269373,0.4994638069772231,0.49410187669121647,0.37756725752171083,0.7274843225333769,0.5687274484654012
0.635,0.63375,0.6872499999999999,0.6255,0.7070000000000001,0.5505,0.904,0.81325,0.843,0.7559999999999999,0.7755,0.664,0.47235108065366366,0.4958882445967317,0.7697416974169742,0.4994935954784885,0.4935954721988237,0.3885771998120623,0.7312452792234765,0.6004851950909603
0.635,0.63375,0.68675,0.62525,0.7072499999999999,0.55025,0.9045000000000001,0.8134999999999999,0.8427500000000001,0.7555,0.7752500000000001,0.66325,0.4728255139694254,0.49567738534528205,0.7702688455455984,0.4995829609822846,0.49347631831023714,0.38560532344089854,0.7331218124279185,0.6063383776999717
0.635,0.63375,0.68625,0.625,0.7075,0.55,0.905,0.81375,0.8425,0.755,0.775,0.6625,0.4734317343173432,0.4952556668423827,0.7707696362677912,0.4997616919898769,0.493565683843152,0.38560532344089854,0.7331218124279185,0.6063383776999717
0.635,0.63375,0.68625,0.625,0.7075,0.55,0.905,0.81375,0.8425,0.755,0.775,0.6625,0.47366895097522405,0.49541381128096995,0.7708750658935161,0.4995829609822846,0.4940125113912515,0.3996485132436551,0.7325114372913829,0.6240883654061637
0.635,0.63375,0.68625,0.625,0.7075,0.55,0.905,0.81375,0.8425,0.755,0.775,0.6625,0.4738534528202425,0.4952820242488139,0.7707696362677912,0.4994042299746923,0.4948168009545356,0.3996485132436551,0.7325114372913829,0.6240883654061637
0.6345000000000001,0.63325,0.6865000000000001,0.62475,0.7072499999999999,0.55,0.90425,0.81375,0.8427500000000001,0.7545000000000001,0.7747499999999999,0.66175,0.4738534528202425,0.49533473906167635,0.7705851344227728,0.4992850759696308,0.49550193645452073,0.4003418986646261,0.7356304345133773,0.6332908103492458
0.634,0.63275,0.68675,0.6245,0.7070000000000001,0.55,0.9035,0.81375,0.843,0.754,0.7745000000000001,0.6609999999999999,0.47340537691091195,0.495545598313126,0.7705587770163416,0.4988978254531808,0.4960083409469135,0.41438509766018383,0.7138257506738127,0.6441496220916919
0.6335000000000001,0.63225,0.687,0.62425,0.70675,0.55,0.90275,0.81375,0.84325,0.7535,0.77425,0.66025,0.4727464417501318,0.4959936742224565,0.7703215603584608,0.49845099793420006,0.496782841921576,0.41438509766018383,0.7138257506738127,0.6441496220916919
0.633,0.6317499999999999,0.6872499999999999,0.624,0.7065,0.55,0.902,0.81375,0.8434999999999999,0.753,0.774,0.6595,0.4724301528729573,0.4959673168160253,0.7704269899841856,0.49782543940762697,0.49681263039372264,0.4181117489791623,0.7082172072815321,0.6464456745142941
0.6325,0.63125,0.6875,0.62375,0.70625,0.55,0.90125,0.81375,0.84375,0.7525,0.77375,0.65875,0.4724037954665261,0.4958618871903005,0.7706378492356352,0.49734882338738085,0.49651474532283135,0.4181117489791623,0.7082172072815321,0.6464456745142941
0.6325,0.63125,0.6875,0.62375,0.70625,0.55,0.90125,0.81375,0.84375,0.7525,0.77375,0.65875,0.4720611491829204,0.49567738534528205,0.7707959936742225,0.49714030387852315,0.4964849567924472,0.4143709315534354,0.6639632423049897,0.6441295420068665
0.6325,0.63125,0.6875,0.62375,0.70625,0.55,0.90125,0.81375,0.84375,0.7525,0.77375,0.65875,0.47221929362150766,0.4958618871903005,0.7705060622034792,0.49696157287093085,0.4968424187785131,0.34632007109344776,0.6632923363346236,0.5750391181835712
0.6325,0.63125,0.6875,0.62375,0.70625,0.55,0.90125,0.81375,0.84375,0.7525,0.77375,0.65875,0.4723774380600949,0.4959146020031629,0.770347917764892,0.49690199586840006,0.49699136128484,0.3441218792622997,0.6676544628331746,0.5693944108716313
0.63275,0.6315,0.6875,0.62375,0.706,0.55,0.9015000000000001,0.8134999999999999,0.8434999999999999,0.752,0.77375,0.6585,0.47295730100158145,0.4959146020031629,0.7701634159198735,0.49731903488611545,0.4974381888329395,0.3441218792622997,0.6676544628331746,0.5693944108716313
0.633,0.6317499999999999,0.6875,0.62375,0.70575,0.55,0.9017499999999999,0.81325,0.84325,0.7515000000000001,0.77375,0.65825,0.47306273062730625,0.49580917237743805,0.769978914074855,0.4975871313975039,0.49749776589370776,0.3204460586186327,0.6801133406407136,0.5534667361901059
