C0,C1,C2,C3,C4,C5,C6,C7,C8,C9,C10,C11,Ax,Ay,Az,Gr,Gp,Fx_norm,Fy_norm,Fz_norm
0.6325,0.6191666666666666,0.685,0.6254166666666666,0.71375,0.5408333333333334,0.8879166666666667,0.8066666666666668,0.8429166666666668,0.7716666666666667,0.7820833333333332,0.7154166666666667,0.4881723857077092,0.49978752788696484,0.6117603314564963,0.49127548603516674,0.5572783294341997,0.08294464180276445,0.805027145730589,0.00415951138253858
0.6328125,0.6196875,0.6853125,0.625625,0.714375,0.54125,0.8896875,0.8078125,0.84375,0.7740625,0.783125,0.7184375,0.4875836608945076,0.49978752788696484,0.6116673749070435,0.4899004268324492,0.5636557594987941,0.08294464180276445,0.805027145730589,0.00415951138253858
0.633,0.62,0.6855,0.62575,0.71475,0.5415,0.89075,0.8085,0.84425,0.7755,0.78375,0.7202500000000001,0.4872304260065866,0.49978752788696484,0.6116116009773718,0.4890753913108187,0.5674822175375507,0.08294464180276445,0.805027145730589,0.00415951138253858
0.63375,0.62125,0.68625,0.62625,0.71625,0.5425,0.895,0.81125,0.84625,0.78125,0.78625,0.7275,0.4862424306809731,0.4998512695208754,0.6118878147243174,0.4869132291083698,0.5816785195058365,0.08294464180276445,0.805027145730589,0.00415951138253858
0.634,0.62125,0.6865000000000001,0.62625,0.7165,0.54325,0.89575,0.81325,0.84675,0.7827500000000001,0.787,0.7284999999999999,0.4848188675236375,0.4994157016891533,0.6109635610326145,0.4858321479515257,0.5851209106352193,0.08294464180276445,0.805027145730589,0.00415951138253858
0.63425,0.62125,0.68675,0.62625,0.71675,0.544,0.8965000000000001,0.81525,0.84725,0.78425,0.7877500000000001,0.7295,0.4834059279719537,0.4988314033783066,0.6098374588335281,0.48452347077337116,0.5877667155787762,0.08294464180276445,0.805027145730589,0.00415951138253858
0.6345000000000001,0.62125,0.687,0.62625,0.7170000000000001,0.5447500000000001,0.89725,0.8172499999999999,0.84775,0.7857500000000001,0.7885,0.7304999999999999,0.48157866779985126,0.4982683522787634,0.6084032720705408,0.4838122330121072,0.5883357059657705,0.08294464180276445,0.805027145730589,0.00415951138253858
0.63475,0.62125,0.6872499999999999,0.62625,0.7172499999999999,0.5455,0.898,0.8192499999999999,0.8482500000000001,0.7872499999999999,0.78925,0.7315,0.47983639647296294,0.4976096887283544,0.6070009561245087,0.4834139399191943,0.5883072571583529,0.08294464180276445,0.805027145730589,0.00415951138253858
0.63525,0.62175,0.6877500000000001,0.626,0.7177500000000001,0.5475,0.89925,0.821,0.8484999999999999,0.79,0.79,0.7332500000000001,0.4780941251460746,0.49681291830447255,0.605449909699352,0.4833001417972997,0.5859174986008754,0.08294464180276445,0.805027145730589,0.00415951138253858
0.6355,0.62225,0.688,0.62575,0.718,0.54875,0.8997499999999999,0.82075,0.8482500000000001,0.79125,0.79,0.7340000000000001,0.477063635397854,0.4965685753744821,0.6045787740359078,0.48435277347928984,0.5817638703776651,0.08294464180276445,0.805027145730589,0.00415951138253858
0.63575,0.62275,0.68825,0.6255,0.71825,0.55,0.9002500000000001,0.8205,0.848,0.7925,0.79,0.7347499999999999,0.4760331456496335,0.4965898225857856,0.6040582173589717,0.48580369803171414,0.5768421056659616,0.08294464180276445,0.805027145730589,0.00415951138253858
0.636,0.6232500000000001,0.6884999999999999,0.62525,0.7184999999999999,0.55125,0.90075,0.82025,0.84775,0.79375,0.79,0.7354999999999999,0.4755019653670456,0.496749176670562,0.6041750770211409,0.48708392573501474,0.5722332867350032,0.08294464180276445,0.805027145730589,0.00415951138253858
0.63625,0.62375,0.68875,0.625,0.71875,0.5525,0.90125,0.82,0.8475,0.795,0.79,0.73625,0.4746839477318602,0.4968447891214278,0.6037713800063742,0.4882219058415668,0.5677382648135454,0.08294464180276445,0.805027145730589,0.00415951138253858
0.63625,0.62375,0.68875,0.625,0.71875,0.5525,0.90125,0.82,0.8475,0.795,0.79,0.73625,0.47398278975884417,0.4970785084457665,0.6034951662594285,0.48904694150224653,0.5631578955799196,0.08294464180276445,0.805027145730589,0.00415951138253858
0.63625,0.62375,0.68875,0.625,0.71875,0.5525,0.90125,0.82,0.8475,0.795,0.79,0.73625,0.47352597471581853,0.49698289599490064,0.6034101774142144,0.4897012800913238,0.5584921772542957,0.08294464180276445,0.805027145730589,0.00415951138253858
0.63625,0.62375,0.68875,0.625,0.71875,0.5525,0.90125,0.82,0.8475,0.795,0.79,0.73625,0.4730904068840965,0.496749176670562,0.6030595984277064,0.48955903271705403,0.5533997161384261,0.08294464180276445,0.805027145730589,0.00415951138253858
0.6367499999999999,0.62425,0.6895,0.625,0.7190000000000001,0.55325,0.9025,0.821,0.8475,0.79475,0.79,0.7365,0.47281419313715073,0.49623924359927757,0.6025815361733773,0.48944523481763824,0.5492745376125484,0.08294464180276445,0.805027145730589,0.00415951138253858
0.63725,0.62475,0.69025,0.625,0.71925,0.5539999999999999,0.90375,0.8220000000000001,0.8475,0.7945,0.79,0.73675,0.4730585360671412,0.49558058004886857,0.602241580792521,0.4864011378935623,0.539288762594702,0.08294464180276445,0.805027145730589,0.00415951138253858
0.63775,0.62525,0.691,0.625,0.7195,0.55475,0.905,0.823,0.8475,0.79425,0.79,0.737,0.4741421438436205,0.49400828641240835,0.6017847657494954,0.4809672828569665,0.5287908956946119,0.0882245081546068,0.8014735650880114,0.00812811264394947
0.63825,0.62575,0.69175,0.625,0.7197499999999999,0.5555,0.90625,0.8240000000000001,0.8475,0.794,0.79,0.73725,0.4782641028365027,0.4937639434824179,0.6010304897482206,0.47456614500789995,0.5180369838545542,0.08974331191299158,0.8032526968360625,0.0071272632513535925
0.63875,0.62625,0.6925,0.625,0.72,0.55625,0.9075,0.825,0.8475,0.79375,0.79,0.7375,0.4875172633591841,0.4973865930096675,0.6003930734091151,0.469359885547657,0.5047510664164676,0.08974331191299158,0.8032526968360625,0.0071272632513535925
0.63875,0.62625,0.6925,0.625,0.72,0.55625,0.9075,0.825,0.8475,0.79375,0.79,0.7375,0.49462445554021034,0.5025390417507702,0.6029958567937959,0.47041251700716835,0.4848648641379004,0.092756951782481,0.8032526968360625,0.007125032285847496
0.63875,0.62625,0.6925,0.625,0.72,0.55625,0.9075,0.825,0.8475,0.79375,0.79,0.7375,0.5030277276107511,0.5083395304366302,0.6064166578136619,0.48036984299511837,0.4647226170306052,0.08597266973008741,0.8076906867045491,0.005934868462698942
0.6395000000000001,0.6267499999999999,0.6927500000000001,0.62625,0.7204999999999999,0.5575,0.907,0.8242499999999999,0.8482500000000001,0.7935,0.79025,0.73675,0.5103473919048125,0.5122702645277807,0.6069265908849464,0.4947368418125279,0.43698435146063197,0.08597266973008741,0.8076906867045491,0.005934868462698942
0.6402500000000001,0.62725,0.693,0.6275,0.721,0.55875,0.9065000000000001,0.8234999999999999,0.8490000000000001,0.79325,0.7905,0.736,0.5121109104430044,0.5140869010942314,0.6062891745458409,0.5060597434833828,0.4110099550001947,0.09125732587665308,0.8005863461499876,0.005749251882483437
0.6409999999999999,0.62775,0.69325,0.62875,0.7215,0.56,0.9059999999999999,0.8227500000000001,0.8497499999999999,0.7929999999999999,0.7907500000000001,0.7352500000000001,0.5085626261553171,0.5126208435142887,0.6055136513332625,0.5160455191686655,0.39180654056307995,0.08822929794933007,0.7979246783174373,0.00495086636118946
0.6417499999999999,0.62825,0.6934999999999999,0.63,0.722,0.56125,0.9055,0.8220000000000001,0.8504999999999999,0.7927500000000001,0.7909999999999999,0.7345,0.5069797089132051,0.5098693296504834,0.602815255497716,0.5211095305872023,0.3809103821274283,0.08672488224877896,0.8032489505532427,0.007524621468055823
0.64225,0.6285000000000001,0.69375,0.6315,0.723,0.5625,0.9047499999999999,0.821,0.85175,0.7925,0.7907500000000001,0.73375,0.5022309571868693,0.5064485286306172,0.6004461914373739,0.5182361307347289,0.3774679909980455,0.08973372298671312,0.7979237417467323,0.0067332564850753176
0.642,0.62825,0.69375,0.6317499999999999,0.7234999999999999,0.5625,0.9045000000000001,0.82075,0.85225,0.7925,0.79025,0.73375,0.497450334643578,0.5061616912780198,0.6011473494103898,0.513200568791046,0.38532005406697273,0.08973372298671312,0.7979237417467323,0.0067332564850753176
0.6417499999999999,0.628,0.69375,0.632,0.7240000000000001,0.5625,0.90425,0.8205,0.85275,0.7925,0.78975,0.73375,0.49510251779453945,0.5077552321257834,0.6037926272176777,0.513541962934251,0.3938549045323948,0.09049552443168314,0.8050299554427037,0.006539406341579465
0.6415000000000001,0.62775,0.69375,0.63225,0.7245,0.5625,0.904,0.82025,0.8532500000000001,0.7925,0.78925,0.73375,0.49287156060767023,0.5094231382131096,0.6069159672792945,0.5154480797517749,0.39963015304475924,0.08521086828511745,0.8014773113708311,0.0065346780452910395
0.642,0.62825,0.69375,0.63275,0.725,0.5625,0.904,0.82075,0.85425,0.7929999999999999,0.78875,0.73375,0.4885902475300117,0.5103898863274196,0.6080314458727292,0.5228449501106449,0.4022475074010683,0.09050032356323827,0.7979265514588472,0.0063392021982313345
0.64275,0.629,0.69375,0.633,0.725,0.5625,0.90425,0.8215,0.8547499999999999,0.7935,0.78875,0.73375,0.48508445766493147,0.5110485498778286,0.6077977265483905,0.5336557612341286,0.40631578653228045,0.0919999494690661,0.8032489505532427,0.0077198909758170444
0.6435,0.62975,0.69375,0.63325,0.725,0.5625,0.9045000000000001,0.8222499999999999,0.8552500000000001,0.794,0.78875,0.73375,0.48191862318070755,0.511207903962605,0.6074577711675343,0.5442958752860099,0.4085063980983439,0.0919999494690661,0.8032489505532427,0.0077198909758170444
0.64425,0.6305,0.69375,0.6335000000000001,0.725,0.5625,0.9047499999999999,0.823,0.85575,0.7945,0.78875,0.73375,0.47856156379475195,0.5104005099330713,0.6063529161797514,0.5538833574334221,0.41197723803514424,0.08973852211826824,0.7997019369240785,0.004757472665232692
0.645,0.63125,0.69375,0.63375,0.725,0.5625,0.905,0.82375,0.85625,0.795,0.78875,0.73375,0.475087644746627,0.509008817592691,0.6046106448528631,0.5627880512944243,0.41880511911941404,0.08973852211826824,0.7997019369240785,0.004757472665232692
0.645,0.63125,0.69375,0.63375,0.725,0.5625,0.905,0.82375,0.85625,0.795,0.78875,0.73375,0.4717624561776267,0.5067566131945183,0.6027727610751089,0.5653200574486503,0.43095305622846986,0.08973852211826824,0.7997019369240785,0.004757472665232692
0.645,0.63125,0.69375,0.634,0.7252500000000001,0.563,0.9055,0.8245,0.85625,0.79525,0.789,0.73375,0.46846913842558163,0.4966429406140444,0.5970785084457665,0.5286770982401536,0.4590611649715444,0.08898630959957675,0.8014763748001262,0.0051494585569269715
0.645,0.63125,0.69375,0.63425,0.7254999999999999,0.5635,0.9059999999999999,0.82525,0.85625,0.7955,0.78925,0.73375,0.4598640178476575,0.49215977902900243,0.5998087750982684,0.49183499204024295,0.487766713798946,0.08521086828511745,0.8032508236946526,0.005346362522040471
0.645,0.63125,0.69375,0.6345000000000001,0.72575,0.564,0.9065000000000001,0.826,0.85625,0.7957500000000001,0.7895,0.73375,0.45022840752151283,0.48750663975353237,0.6025815361733773,0.45752489199455826,0.5160170701387691,0.08521086828511745,0.8032508236946526,0.005346362522040471
0.645,0.63125,0.69375,0.63475,0.726,0.5645,0.907,0.82675,0.85625,0.7959999999999999,0.78975,0.73375,0.44375863167959206,0.4859662169340274,0.6066397535323489,0.42165007016446987,0.5300995742076391,0.08973372298671312,0.8005872827206926,0.008118270884682111
0.645,0.63125,0.69375,0.635,0.72625,0.565,0.9075,0.8275,0.85625,0.79625,0.79,0.73375,0.44170827578880273,0.4809518750663975,0.6075746308297036,0.39197723874707635,0.5348790904326789,0.08294464180276445,0.7970365117902297,0.0055523429152051305
0.645,0.63125,0.69375,0.635,0.72625,0.565,0.9075,0.8275,0.85625,0.79625,0.79,0.73375,0.44040157229363647,0.4844364177201742,0.612918304472538,0.39985775062342116,0.5213940264481358,0.08294464180276445,0.7970365117902297,0.0055523429152051305
0.645,0.63125,0.69375,0.635,0.72625,0.565,0.9075,0.8275,0.85625,0.79625,0.79,0.73375,0.45021778391586104,0.47868904706257304,0.6167640497184744,0.4056329991357856,0.5093029874544924,0.08522045721139591,0.8023654778980387,0.006735294867236154
0.6447499999999999,0.6315,0.69325,0.63475,0.72575,0.56475,0.9072499999999999,0.8275,0.8554999999999999,0.79625,0.79025,0.7340000000000001,0.462828003824498,0.48067566131945183,0.6151386380537555,0.4280227577600067,0.49874822204965186,0.08899110873113189,0.7997009893348948,0.007129139063158044
0.6445000000000001,0.6317499999999999,0.6927500000000001,0.6345000000000001,0.7252500000000001,0.5645,0.907,0.8275,0.8547499999999999,0.79625,0.7905,0.73425,0.4727716987145437,0.48069690853075536,0.6126633379368958,0.4517496423697999,0.4981792321076152,0.09200474860062124,0.8041399157740863,0.007327910086287581
0.64425,0.632,0.6922499999999999,0.63425,0.7247499999999999,0.5642499999999999,0.90675,0.8275,0.8540000000000001,0.79625,0.7907500000000001,0.7345,0.4802188462764262,0.4853925422288325,0.614055030277276,0.4689900411509223,0.5032147940512981,0.08520606915356232,0.8014745016587164,0.006731201845878839
0.64325,0.6315,0.6915,0.63375,0.7240000000000001,0.5625,0.9059999999999999,0.82675,0.852,0.7955,0.7907500000000001,0.735,0.48763412302135345,0.4901094231382131,0.6155210878572187,0.4861450913962434,0.5081650073479403,0.08973372298671312,0.805026209159884,0.008522784698147729
0.64225,0.631,0.69075,0.63325,0.7232500000000001,0.5607500000000001,0.9052500000000001,0.826,0.85,0.79475,0.7907500000000001,0.7354999999999999,0.48923828747476894,0.4985020716031021,0.6098587060448316,0.5058036985434153,0.510526316041226,0.08521086828511745,0.7970374483609346,0.006328518824734374
0.6415000000000001,0.63025,0.6905,0.633,0.723,0.55925,0.9047499999999999,0.82525,0.84875,0.794,0.7905,0.73575,0.4892595346860725,0.4998087750982684,0.6096568575374482,0.5060312945647257,0.5091038408524162,0.08898151046802162,0.7988118972554611,0.006930564374997376
0.64075,0.6295000000000001,0.69025,0.63275,0.72275,0.55775,0.90425,0.8245,0.8475,0.79325,0.79025,0.736,0.4890364389673855,0.49984064591522365,0.6091681716774673,0.505832148073889,0.5081365577062273,0.08972892385515799,0.8068025201773416,0.005343287441222374
0.6395000000000001,0.628,0.69025,0.632,0.722,0.5545,0.90225,0.82175,0.84575,0.79175,0.7895,0.73625,0.4889939445447785,0.49977690428131305,0.6088600871135663,0.5045234709235443,0.505405405339263,0.08672008311722383,0.8032508236946526,0.005750286080058298
0.639,0.62725,0.6905,0.6315,0.7215,0.55275,0.90075,0.81975,0.8452500000000001,0.7909999999999999,0.789,0.73625,0.48911080420694786,0.49970253904175077,0.6085944969722724,0.5035277383303113,0.5027880511498131,0.08672008311722383,0.8032508236946526,0.005750286080058298
0.6385000000000001,0.6265,0.69075,0.631,0.721,0.551,0.89925,0.8177500000000001,0.8447499999999999,0.79025,0.7885,0.73625,0.4890470625730373,0.4997131626474025,0.60852013173271,0.5024182076986132,0.5007112374831655,0.08747229563591531,0.8059134280979078,0.008318681367328733
0.638,0.62575,0.691,0.6305,0.7204999999999999,0.54925,0.89775,0.81575,0.84425,0.7895,0.7879999999999999,0.73625,0.4890364389673855,0.49950069053436735,0.6086263677892276,0.5014793741385176,0.4989758178484835,0.09049552443168314,0.802362657167445,0.00812502380717814
0.6375,0.625,0.69125,0.63,0.72,0.5475,0.89625,0.81375,0.84375,0.78875,0.7875,0.73625,0.4891745458408584,0.4994369489004568,0.608743227451397,0.5009103840852416,0.4972972972191291,0.09049552443168314,0.802362657167445,0.00812502380717814
0.6375,0.625,0.69125,0.63,0.72,0.5475,0.89625,0.81375,0.84375,0.78875,0.7875,0.73625,0.48914267502390313,0.49960692659088496,0.6088813343248699,0.5011664296092159,0.4971834992084739,0.08899110873113189,0.8032526968360625,0.006726044613957796
0.63725,0.6245,0.6905,0.62975,0.71925,0.54675,0.89575,0.813,0.8440000000000001,0.7875,0.787,0.736,0.48911080420694786,0.4996706682247955,0.6089556995644322,0.500853485079914,0.49724039821380145,0.08746269737280506,0.8059143646686128,0.005146163380857149
0.637,0.624,0.68975,0.6295000000000001,0.7184999999999999,0.546,0.8952500000000001,0.8122499999999999,0.84425,0.78625,0.7865000000000001,0.73575,0.4892701582917242,0.4995219377456709,0.6089556995644322,0.500568990053276,0.4979516357803965,0.08671049419094536,0.8059143646686128,0.004747013138611056
0.6367499999999999,0.6235,0.6890000000000001,0.62925,0.7177500000000001,0.54525,0.8947499999999999,0.8115000000000001,0.8445,0.785,0.7859999999999999,0.7354999999999999,0.48942951237650056,0.49937320726654627,0.6089875703813874,0.5000568990053276,0.49880512086031054,0.08974331191299158,0.8076878659739555,0.0065321982220855525
0.63625,0.62275,0.688,0.6285000000000001,0.7170000000000001,0.5445,0.894,0.8109999999999999,0.8440000000000001,0.7835,0.7855,0.7345,0.48947200679910763,0.49936258366089453,0.6092744077339849,0.4997724039786896,0.5003698434790097,0.08975291017610183,0.8085788422132778,0.005153744161629546
0.63575,0.622,0.687,0.62775,0.71625,0.54375,0.89325,0.8105,0.8434999999999999,0.782,0.785,0.7334999999999999,0.48952512482736643,0.49944757250610855,0.6093806437905025,0.49951635845471537,0.5023613087210954,0.08821970902305167,0.8094641880098917,0.007521151216217583
0.6355,0.62175,0.68675,0.62725,0.71625,0.54375,0.893,0.8107500000000001,0.8427500000000001,0.78175,0.785,0.73275,0.4894188887708488,0.4995644321682779,0.6093275257622437,0.49951635845471537,0.5043812234380352,0.08821970902305167,0.8094641880098917,0.007521151216217583
0.63525,0.6214999999999999,0.6865000000000001,0.6267499999999999,0.71625,0.54375,0.89275,0.8109999999999999,0.8420000000000001,0.7815000000000001,0.785,0.732,0.4892595346860725,0.49964942101349197,0.609401891001806,0.499431009946724,0.5059459460845442,0.08749627262002738,0.7979265514588472,0.007528333074346238
0.635,0.62125,0.68625,0.62625,0.71625,0.54375,0.8925,0.81125,0.84125,0.78125,0.785,0.73125,0.4890470625730373,0.49996812918304473,0.609444385424413,0.4994879089520516,0.5075675677641908,0.0882245081546068,0.8014773113708311,0.007137771549082145
0.635,0.62125,0.68625,0.62625,0.71625,0.54375,0.8925,0.81125,0.84125,0.78125,0.785,0.73125,0.4888452140656539,0.5003293317752046,0.6093806437905025,0.4990327169094308,0.5089331438920531,0.09049552443168314,0.811243319757943,0.006535094475511633
0.635,0.62125,0.68625,0.62625,0.71625,0.54375,0.8925,0.81125,0.84125,0.78125,0.785,0.73125,0.4888345904600021,0.5003399553808563,0.6095081270583236,0.498406827878637,0.5102418210702077,0.08595828167225388,0.8014773113708311,0.0059431020259792895
0.635,0.62125,0.68625,0.62625,0.71625,0.54375,0.8925,0.81125,0.84125,0.78125,0.785,0.73125,0.4886964835865293,0.500573674705195,0.6096887283544035,0.49769559028423216,0.5118349932193805,0.08746749650436018,0.8041380426326764,0.005947195047336606
0.635,0.6214999999999999,0.687,0.62625,0.7165,0.5435,0.8935,0.8109999999999999,0.84125,0.7827500000000001,0.7857500000000001,0.732,0.48863274195261874,0.500658663550409,0.6113247636247743,0.4968705547626016,0.5226742541514363,0.09048593550540468,0.8014773113708311,0.005942493012413447
0.63525,0.622,0.6875,0.6267499999999999,0.7170000000000001,0.54375,0.8952500000000001,0.81025,0.8422499999999999,0.7859999999999999,0.78675,0.7332500000000001,0.4883352809943695,0.5006692871560607,0.6140444066716244,0.4957610241309035,0.5385775259458321,0.08672008311722383,0.8032536334067675,0.006932006249004405
0.6355,0.6225,0.688,0.62725,0.7175,0.544,0.897,0.8095,0.84325,0.78925,0.7877500000000001,0.7345,0.4880378200361203,0.5005524274938914,0.6171358759162859,0.49448079653884236,0.5568136571255186,0.08898630959957675,0.801478247941536,0.0069338595510671985
0.63575,0.623,0.6884999999999999,0.62775,0.718,0.54425,0.89875,0.80875,0.84425,0.7925,0.78875,0.73575,0.4879740784022097,0.5015935408477638,0.6207160310209285,0.49297297281423136,0.5799431028746181,0.0867152839856687,0.8103514179663944,0.005749045543184955
0.636,0.6235,0.6890000000000001,0.62825,0.7184999999999999,0.5445,0.9005,0.8079999999999999,0.8452500000000001,0.7957500000000001,0.78975,0.737,0.48758100499309465,0.5025815361733772,0.624519281844258,0.49197724030442785,0.606059746375607,0.0867152839856687,0.8103514179663944,0.005749045543184955
0.6365,0.62375,0.68875,0.6285000000000001,0.7190000000000001,0.5457500000000001,0.9015000000000001,0.80825,0.847,0.7975,0.79025,0.73775,0.4872835440348454,0.5057154998406459,0.6259003505789865,0.4942816499923859,0.6305263178877999,0.08520606915356232,0.805026209159884,0.006931405989226978
0.6367499999999999,0.62375,0.68875,0.62825,0.71925,0.5465,0.9017499999999999,0.809,0.84775,0.7975,0.7905,0.738,0.4872835440348454,0.5089025815361734,0.625698502071603,0.49829302984017193,0.651209106352193,0.0882245081546068,0.8041371060619715,0.006140851356946
0.637,0.62375,0.68875,0.628,0.7195,0.54725,0.902,0.80975,0.8484999999999999,0.7975,0.7907500000000001,0.7382500000000001,0.48770848826091573,0.513045787740359,0.624604270689472,0.5041820768081492,0.669672834443105,0.0844634455611493,0.8014735650880114,0.007329565802840309
0.63725,0.62375,0.68875,0.62775,0.7197499999999999,0.5479999999999999,0.90225,0.8105,0.84925,0.7975,0.7909999999999999,0.7384999999999999,0.4878997131626474,0.5175820673536599,0.62205460533305,0.5140825038463912,0.6821906158376562,0.08822929794933007,0.8041389792033814,0.006536335012384977
0.6375,0.62375,0.68875,0.6275,0.72,0.54875,0.9025,0.81125,0.85,0.7975,0.79125,0.73875,0.4879422075852544,0.5198661425687878,0.6201211091044301,0.5367567582203064,0.6860028485827887,0.08822929794933007,0.8041389792033814,0.006536335012384977
0.6375,0.62375,0.68875,0.6275,0.72,0.54875,0.9025,0.81125,0.85,0.7975,0.79125,0.73875,0.48971634972909805,0.5190587485392543,0.6154360990120047,0.5599431033640715,0.6787197759008557,0.08898630959957675,0.8005891558621023,0.006534249109658422
0.6375,0.62375,0.68875,0.6275,0.72,0.54875,0.9025,0.81125,0.85,0.7975,0.79125,0.73875,0.4916817167746733,0.517837033889302,0.6111335387230425,0.5820199167637445,0.6672546270782099,0.08749148282530404,0.8032470774118328,0.006535507154108607
0.63825,0.6235,0.6890000000000001,0.62775,0.7202500000000001,0.5505,0.90225,0.81125,0.8502500000000001,0.7972499999999999,0.7915000000000001,0.7390000000000001,0.49992563476043766,0.5133326250929565,0.6069903325188569,0.6005974418641572,0.6522617389240983,0.08445385663487083,0.8059134280979078,0.006935897933228044
0.639,0.6232500000000001,0.6892499999999999,0.628,0.7204999999999999,0.55225,0.902,0.81125,0.8504999999999999,0.797,0.79175,0.73925,0.5081164347179433,0.507510889195793,0.6036438967385531,0.6156472285230192,0.6379800887537294,0.08595828167225388,0.802362657167445,0.005744317246896519
0.63975,0.623,0.6895,0.62825,0.72075,0.5539999999999999,0.9017499999999999,0.81125,0.85075,0.79675,0.792,0.7395,0.5173164772123658,0.5046531392754701,0.600042494422607,0.6126315801838821,0.6180085382730791,0.08520606915356232,0.8005872827206926,0.005541852125053418
0.6405,0.62275,0.68975,0.6285000000000001,0.721,0.5557500000000001,0.9015000000000001,0.81125,0.851,0.7965000000000001,0.7922499999999999,0.7397499999999999,0.5269520875385105,0.5023584404546904,0.6041857006267928,0.597780939626519,0.5869985807588741,0.08522525634295104,0.7970355752195248,0.006336958727313215
0.64125,0.6225,0.69,0.62875,0.72125,0.5575,0.90125,0.81125,0.85125,0.79625,0.7925,0.74,0.5338680548178052,0.5025815361733772,0.6022840752151281,0.5705547663837472,0.5347083948071885,0.08522525634295104,0.7970355752195248,0.006336958727313215
0.64125,0.6225,0.69,0.62875,0.72125,0.5575,0.90125,0.81125,0.85125,0.79625,0.7925,0.74,0.533963667268671,0.5050780835015404,0.6006905343673643,0.5483357049979878,0.48369843544640956,0.09046674831601594,0.7979256148881423,0.0057406494095482135
0.6415000000000001,0.6232500000000001,0.69,0.629,0.72125,0.5575,0.9025,0.8134999999999999,0.85275,0.79675,0.7927500000000001,0.7404999999999999,0.5340486561138851,0.5073940295336237,0.5990651227026453,0.5272546236631606,0.4319487892944703,0.08747229563591531,0.8032489505532427,0.0067332527334517086
0.6417499999999999,0.624,0.69,0.62925,0.72125,0.5575,0.90375,0.81575,0.85425,0.7972499999999999,0.7929999999999999,0.741,0.5338255603951981,0.5085520025496654,0.597014766811856,0.5129729734927917,0.38961592977569226,0.08747229563591531,0.8014745016587164,0.006335289254807244
0.642,0.62475,0.69,0.6295000000000001,0.72125,0.5575,0.905,0.818,0.85575,0.7977500000000001,0.79325,0.7415,0.531063422925741,0.510411133538723,0.5915542335068522,0.508705547815123,0.3601422454609522,0.08747229563591531,0.8014745016587164,0.006335289254807244
0.64225,0.6255,0.69,0.62975,0.72125,0.5575,0.90625,0.82025,0.85725,0.79825,0.7935,0.742,0.5305641134601083,0.509837458833528,0.5924359927759482,0.5170697016539002,0.3542816469666744,0.08747229563591531,0.8014745016587164,0.006335289254807244
0.6425,0.62625,0.69,0.63,0.72125,0.5575,0.9075,0.8225,0.85875,0.79875,0.79375,0.7425,0.5295867417401466,0.5091150536492085,0.5939020503558908,0.5237837843381768,0.3495305804389674,0.08823889621244033,0.8005863461499876,0.0063352754988540115
0.6425,0.62625,0.69,0.63,0.72125,0.5575,0.9075,0.8225,0.85875,0.79875,0.79375,0.7425,0.5280675661319452,0.5081589291405503,0.5959205354297248,0.530896160393465,0.3455476495098383,0.08521086828511745,0.7996991161934849,0.007920077611588342
0.6425,0.62625,0.69,0.63,0.72125,0.5575,0.9075,0.8225,0.85875,0.79875,0.79375,0.7425,0.5260384574524594,0.5070965685753744,0.5985020716031021,0.537496444788988,0.34310099333752564,0.08521086828511745,0.7996991161934849,0.007920077611588342
0.6425,0.6265,0.6905,0.63025,0.72175,0.55775,0.9079999999999999,0.82325,0.8584999999999999,0.79925,0.7935,0.74225,0.5223201954743439,0.5056623818123871,0.6035801551046425,0.5422475117616525,0.3376386870462456,0.08521086828511745,0.8041380426326764,0.006338378091578584
0.6425,0.6267499999999999,0.691,0.6305,0.72225,0.5579999999999999,0.9085,0.8240000000000001,0.8582500000000001,0.79975,0.79325,0.742,0.5182407309040689,0.5043344311059174,0.6089344523531287,0.5463157908928646,0.3311237499628905,0.08521086828511745,0.8041380426326764,0.006338378091578584
0.6425,0.627,0.6915,0.63075,0.72275,0.55825,0.909,0.82475,0.858,0.80025,0.7929999999999999,0.74175,0.5143843620524806,0.5032826941463933,0.6140337830659726,0.5497012812927092,0.324751060476284,0.09351396343272762,0.805026209159884,0.006335096671461985
0.6425,0.62725,0.6920000000000001,0.631,0.7232500000000001,0.5585,0.9095,0.8255,0.85775,0.8007500000000001,0.7927500000000001,0.7415,0.5103898863274196,0.5026665250185913,0.618718793158398,0.5516927458673586,0.3172688425827673,0.0867008959278351,0.8005863461499876,0.00792276877625713
0.643,0.628,0.693,0.63125,0.72425,0.5595,0.90975,0.82625,0.8575,0.80175,0.7927500000000001,0.7415,0.5061829384893233,0.5023478168490385,0.6226601508552002,0.5517780949593568,0.3086486403556016,0.08898630959957675,0.7997000527641898,0.006938999275411409
0.6435,0.6285000000000001,0.6934999999999999,0.63125,0.7247499999999999,0.56025,0.9095,0.82625,0.8575,0.8022499999999999,0.7929999999999999,0.74175,0.5034845426537767,0.5023796876659938,0.6233188144056092,0.5509246093788656,0.30483640761046893,0.08899110873113189,0.8014745016587164,0.008309860049682993
0.644,0.629,0.6940000000000001,0.63125,0.7252500000000001,0.561,0.90925,0.82625,0.8575,0.8027500000000001,0.79325,0.742,0.5007967704238818,0.502284075215128,0.6230532242643153,0.5490753915110496,0.3028733936230674,0.08595828167225388,0.7979256148881423,0.00553941607079003
0.6445000000000001,0.6295000000000001,0.6945,0.63125,0.72575,0.56175,0.909,0.82625,0.8575,0.80325,0.7935,0.74225,0.4984489535748433,0.5021353447360034,0.6225114203760757,0.5466856338434872,0.3015078188300777,0.08823889621244033,0.7988118972554611,0.006932435184637022
0.645,0.63,0.695,0.63125,0.72625,0.5625,0.90875,0.82625,0.8575,0.80375,0.79375,0.7425,0.4960798895145012,0.5014448103686391,0.6217358971634973,0.5441251788818436,0.304068272011891,0.08823889621244033,0.7988118972554611,0.006932435184637022
0.645,0.63,0.695,0.63125,0.72625,0.56275,0.91,0.8265,0.85725,0.80375,0.79375,0.7425,0.4930946563263572,0.49696164878359717,0.6211409752469988,0.5425604562075248,0.3171265949860187,0.09048593550540468,0.8005882192913975,0.007323400634709674
0.645,0.63,0.695,0.63125,0.72625,0.563,0.91125,0.82675,0.857,0.80375,0.79375,0.7425,0.490247530011686,0.4911080420694784,0.621002868373526,0.53467994433118,0.3354765242875998,0.09047154744757109,0.8005844730085777,0.006731201845878839
0.645,0.63,0.695,0.63125,0.72625,0.56325,0.9125,0.8270000000000001,0.85675,0.80375,0.79375,0.7425,0.4876022522043982,0.4852969297779666,0.6212153404865611,0.5228734004754141,0.3550497825652523,0.09047154744757109,0.8005844730085777,0.006731201845878839
0.645,0.63,0.695,0.63125,0.72625,0.5635,0.91375,0.8272499999999999,0.8565,0.80375,0.79375,0.7425,0.4849251035801551,0.4801763518538192,0.6215871666843726,0.5040967283835873,0.37624466202197404,0.08446824469270435,0.7970365117902297,0.005542860061263012
0.645,0.63,0.695,0.63125,0.72625,0.56375,0.915,0.8275,0.85625,0.80375,0.79375,0.7425,0.4825666631254648,0.47693615213003293,0.6211834696696059,0.4819630151442912,0.39553342688595977,0.08748188456219379,0.7988118972554611,0.002967930696207046
0.6452500000000001,0.63025,0.69475,0.6315,0.72625,0.56475,0.915,0.828,0.85675,0.80475,0.794,0.74275,0.48104748751726334,0.4781897375969404,0.620386699245724,0.46002844800649395,0.40549075331886736,0.08748188456219379,0.7988118972554611,0.002967930696207046
0.6455,0.6305,0.6945,0.6317499999999999,0.72625,0.56575,0.915,0.8284999999999999,0.85725,0.8057500000000001,0.79425,0.743,0.47959205354297246,0.48104748751726334,0.6192393498353341,0.44594594393762393,0.40998577524032515,0.08672008311722383,0.8023645413273338,0.005355850378147397
0.64575,0.63075,0.6942499999999999,0.632,0.72625,0.56675,0.915,0.8290000000000001,0.85775,0.80675,0.7945,0.7432500000000001,0.47812599596302985,0.48427706363539785,0.6181769892701583,0.437240395733163,0.41328591699312905,0.08672008311722383,0.8023645413273338,0.005355850378147397
0.6459999999999999,0.631,0.6940000000000001,0.63225,0.72625,0.56775,0.915,0.8295,0.8582500000000001,0.8077500000000001,0.79475,0.7434999999999999,0.47646871348135555,0.4872941676404972,0.6163603527037076,0.4352773799659312,0.41584637195477264,0.09125253608192975,0.8041389792033814,0.006741442527789948
0.64625,0.63125,0.69375,0.6325,0.72625,0.56875,0.915,0.83,0.85875,0.80875,0.795,0.74375,0.4749814086901094,0.48918516944651014,0.6150642728141931,0.4364722592446699,0.41863442271524787,0.09576580185724702,0.80236359373815,0.007527088785849285
0.64625,0.63125,0.69375,0.6325,0.72625,0.56875,0.915,0.83,0.85875,0.80875,0.795,0.74375,0.4735365983214703,0.4911611600977372,0.6139487942207585,0.43749644122932735,0.4235277368397034,0.092756951782481,0.7997000527641898,0.008710662256858206
0.64625,0.63125,0.69375,0.6325,0.72625,0.56875,0.915,0.83,0.85875,0.80875,0.795,0.74375,0.47193243386805483,0.4928503133963667,0.6124402422182089,0.4393741087944761,0.4299288751337276,0.092756951782481,0.7997000527641898,0.008710662256858206
0.64625,0.63125,0.69375,0.6325,0.72625,0.56875,0.915,0.83,0.85875,0.80875,0.795,0.74375,0.4704451290768087,0.49401891001806014,0.6108785721874004,0.4421337107475337,0.4369274526221635,0.08749148282530404,0.812125855842442,0.007129748076723896
0.64625,0.63125,0.69375,0.6325,0.72625,0.56875,0.915,0.83,0.85875,0.80875,0.795,0.74375,0.46874535217252733,0.49455009030064806,0.6099861893126527,0.4453769539955873,0.44409672740468065,0.0844490575033157,0.8041380426326764,0.006536939023786011
0.64625,0.631,0.69375,0.632,0.72625,0.5692499999999999,0.9159999999999999,0.8305,0.85875,0.80925,0.79475,0.74425,0.4672899181982365,0.49477318601933495,0.6088175926909594,0.4484494999495596,0.4516073958854453,0.08746269737280506,0.7979237417467323,0.00831970180895036
0.64625,0.63075,0.69375,0.6315,0.72625,0.56975,0.917,0.831,0.85875,0.80975,0.7945,0.7447499999999999,0.4662275576330607,0.4943588653989164,0.6077552321257835,0.4510668543058687,0.45692745280014646,0.08824848513871879,0.8014745016587164,0.005949262191945118
0.64625,0.6305,0.69375,0.631,0.72625,0.57025,0.9179999999999999,0.8315,0.85875,0.81025,0.79425,0.7452500000000001,0.46574949537873156,0.4939551683841496,0.6063104217571443,0.44879089364780705,0.4645519194028057,0.08824848513871879,0.8014745016587164,0.005949262191945118
0.64625,0.63025,0.69375,0.6305,0.72625,0.57075,0.919,0.8320000000000001,0.85875,0.8107500000000001,0.794,0.74575,0.4658663550409009,0.49392329756719433,0.6046212684585148,0.4429871945481947,0.47314366915165385,0.0867152839856687,0.8076859928325456,0.005540817927478558
0.64625,0.63,0.69375,0.63,0.72625,0.57125,0.92,0.8325,0.85875,0.81125,0.79375,0.74625,0.4667268670986933,0.4944119834271752,0.6027833846807606,0.4355903239668459,0.4829587474316159,0.092756951782481,0.8023654778980387,0.007926667963727986
0.64625,0.63,0.69375,0.63,0.72625,0.57125,0.92,0.8325,0.85875,0.81125,0.79375,0.74625,0.4675661319451822,0.4946988207797727,0.6016891532986296,0.4282788024774953,0.4924893310742778,0.09124773695037462,0.7997000527641898,0.007136333426698725
0.64625,0.63,0.69375,0.63,0.72625,0.57125,0.92,0.8325,0.85875,0.81125,0.79375,0.74625,0.4690321895251248,0.49429512376500584,0.6002018485073835,0.4196301532227423,0.5063442388993586,0.0882245081546068,0.8014754382294212,0.006731999691166331
0.64625,0.63,0.69375,0.63,0.72625,0.57125,0.92,0.8325,0.85875,0.81125,0.79375,0.74625,0.4709763093593966,0.49353022415807923,0.599256347604377,0.4126315766242215,0.5187482221720152,0.08898630959957675,0.8059134280979078,0.007328944283862433
0.64625,0.6305,0.69375,0.63025,0.72625,0.5715,0.9209999999999999,0.833,0.8582500000000001,0.8115000000000001,0.79425,0.74625,0.47288855837671306,0.49255285243811747,0.5990544990969935,0.4068278793044395,0.530071124399067,0.08898630959957675,0.8059134280979078,0.007328944283862433
0.64625,0.631,0.69375,0.6305,0.72625,0.57175,0.922,0.8334999999999999,0.85775,0.81175,0.79475,0.74625,0.4758844151705089,0.4934877297354722,0.5995644321682779,0.39954480662250647,0.5397155056074265,0.08596787059853227,0.7979218575868436,0.008121536047763058
0.64625,0.6315,0.69375,0.63075,0.72625,0.5720000000000001,0.9229999999999999,0.8340000000000001,0.85725,0.812,0.79525,0.74625,0.4802400934877297,0.49833209391267397,0.6008817592690959,0.4078520612890969,0.5327738270686986,0.08596787059853227,0.7979218575868436,0.008121536047763058
0.64625,0.632,0.69375,0.631,0.72625,0.57225,0.92325,0.8340000000000001,0.8575,0.8125,0.7959999999999999,0.7465,0.4842026983958356,0.50483374057155,0.6019016254116647,0.42219061129908886,0.5168136558796373,0.08520127002200718,0.8023654778980387,0.0069305781309506095
0.64625,0.6325,0.69375,0.63125,0.72625,0.5725,0.9235,0.8340000000000001,0.85775,0.813,0.79675,0.74675,0.4872198024009349,0.5132795070646977,0.6022522043981727,0.4463157886680768,0.49061166350912905,0.09050032356323827,0.8005882192913975,0.007726276239199406
0.64625,0.6325,0.69375,0.63125,0.72625,0.5725,0.9227500000000001,0.8334999999999999,0.8584999999999999,0.81325,0.797,0.747,0.4897057261234463,0.5221927122065229,0.6017953893551471,0.4734566139312443,0.4611664278905672,0.09200474860062124,0.79969817962278,0.006146408762051993
0.64625,0.6325,0.69375,0.63125,0.72625,0.5725,0.922,0.833,0.85925,0.8134999999999999,0.7972499999999999,0.74725,0.49009879953256136,0.530224158079252,0.6001381068734728,0.5081081085650916,0.4293598843017758,0.09200474860062124,0.79969817962278,0.006146408762051993
0.64625,0.6325,0.69375,0.63125,0.72625,0.5725,0.92125,0.8325,0.86,0.81375,0.7975,0.7475,0.48823966854350365,0.5356209497503452,0.5964942101349198,0.5324893327651166,0.41342816281004735,0.08822929794933007,0.8032498871239477,0.007329149372619726
0.64625,0.6325,0.69375,0.63125,0.72625,0.5725,0.92125,0.8325,0.86,0.81375,0.7975,0.7475,0.4856156379475194,0.5404971847445023,0.5932115159885265,0.5577809414953407,0.4044950201416275,0.08822929794933007,0.8032498871239477,0.007329149372619726
0.64625,0.6325,0.69375,0.63125,0.72625,0.5725,0.92125,0.8325,0.86,0.81375,0.7975,0.7475,0.4827366408158929,0.5439073621587167,0.5910974184638267,0.5803413979698402,0.4064580359088593,0.08823889621244033,0.8005900924328073,0.005942286673114955
0.64625,0.6325,0.69375,0.63125,0.72625,0.5720000000000001,0.92175,0.8322499999999999,0.8597499999999999,0.8134999999999999,0.7977500000000001,0.74725,0.4800382449803463,0.5463826622755763,0.5890683097843408,0.6034992923038786,0.4119772398149745,0.0867152839856687,0.8023645413273338,0.006534472956533757
0.64625,0.6325,0.69375,0.63125,0.72625,0.5715,0.9222499999999999,0.8320000000000001,0.8595,0.81325,0.7979999999999999,0.747,0.478338468076065,0.5467332412620843,0.5875810049930946,0.6254623073591782,0.4213371261635551,0.08597266973008741,0.80236359373815,0.007723997753127603
0.64625,0.6325,0.69375,0.63125,0.72625,0.5710000000000001,0.9227500000000001,0.83175,0.85925,0.813,0.79825,0.74675,0.4829172421119728,0.5374907043450547,0.5877297354722193,0.6436984378714283,0.4321194875897061,0.08597266973008741,0.80236359373815,0.007723997753127603
0.64625,0.6325,0.69375,0.63125,0.72625,0.5705,0.92325,0.8315,0.8590000000000001,0.8127500000000001,0.7985,0.7465,0.49528311909061934,0.53945607139063,0.5815999150111548,0.6444950240572541,0.4796301564264368,0.0919999494690661,0.8059143646686128,0.006342085946245382
0.64625,0.6325,0.69375,0.63125,0.72625,0.57,0.92375,0.83125,0.85875,0.8125,0.79875,0.74625,0.508169552746202,0.5412833315627323,0.5752257516200998,0.6399715533283787,0.5240398305017776,0.08822929794933007,0.8014773113708311,0.004752538029645774
0.64625,0.6325,0.69375,0.63125,0.72625,0.57,0.92375,0.83125,0.85875,0.8125,0.79875,0.74625,0.5153723573780942,0.5266015085520026,0.5751726335918411,0.6122901879317468,0.5678236147954587,0.08822929794933007,0.8014773113708311,0.004752538029645774
0.64625,0.6325,0.69375,0.63125,0.72625,0.57,0.92375,0.83125,0.85875,0.8125,0.79875,0.74625,0.5195580580048869,0.5107085944969723,0.5685010092425369,0.5566145120251742,0.6264011411417526,0.08671049419094536,0.805026209159884,0.008124624884534389
0.64625,0.6325,0.69375,0.63125,0.72625,0.57,0.92375,0.83125,0.85875,0.8125,0.79875,0.74625,0.5241368320407946,0.5068840964623393,0.569595240624668,0.49778094018271596,0.693485070035966,0.08671049419094536,0.805026209159884,0.008124624884534389
0.64625,0.633,0.6942499999999999,0.6315,0.72625,0.57025,0.92175,0.831,0.85675,0.80875,0.7975,0.74225,0.5149686603633273,0.49294592584723257,0.5838627430149793,0.4623897578677932,0.7218776739725378,0.09123814802409616,0.8041389792033814,0.006142065632454085
0.64625,0.6335000000000001,0.69475,0.6317499999999999,0.72625,0.5705,0.91975,0.83075,0.8547499999999999,0.805,0.79625,0.7382500000000001,0.5043769255285244,0.47560820142356314,0.5983958355465845,0.43163584418116163,0.7498435351188638,0.08672967204350229,0.7996991161934849,0.006535699737453866
0.64625,0.634,0.69525,0.632,0.72625,0.57075,0.9177500000000001,0.8305,0.85275,0.80125,0.795,0.73425,0.5015722936364602,0.47888027196430466,0.610899819398704,0.4313797986849973,0.778093891458687,0.08144900272412338,0.7857463392563865,0.22125112695646867
0.64625,0.6345000000000001,0.69575,0.63225,0.72625,0.5710000000000001,0.9157500000000001,0.83025,0.85075,0.7975,0.79375,0.7302500000000001,0.49907574630829704,0.4878253479230851,0.6309890576861787,0.46600284362151184,0.7768990130698634,0.14974192389957336,0.6438038922754612,0.3002244683943094
0.64575,0.63475,0.696,0.632,0.726,0.5710000000000001,0.91125,0.8292499999999999,0.8475,0.7879999999999999,0.7895,0.7134999999999999,0.490598108998194,0.4920110485498778,0.6364283437798789,0.49974395417011747,0.7414224816629424,0.18213016101898669,0.6092115981963147,0.32255348058255917
0.6452500000000001,0.6345000000000001,0.69575,0.6315,0.72575,0.57075,0.90875,0.8284999999999999,0.84625,0.7822499999999999,0.7865000000000001,0.70075,0.48961011367258045,0.49463507914586213,0.6326144693508977,0.5122617354534292,0.6855192084001868,0.3010993811351797,0.4352841267385548,0.3844152040399284
0.6447499999999999,0.63425,0.6955,0.631,0.7254999999999999,0.5705,0.90625,0.8277500000000001,0.845,0.7765000000000001,0.7835,0.688,0.4899288218421332,0.5005311802825879,0.6285881228088813,0.5201706976389234,0.6288762484018904,0.3010993811351797,0.4352841267385548,0.3844152040399284
0.64425,0.634,0.69525,0.6305,0.7252500000000001,0.57025,0.90375,0.8270000000000001,0.84375,0.77075,0.7805,0.67525,0.4881865505152449,0.5024646765112079,0.6206735365983215,0.5184352779486217,0.5703556213390226,0.5544801569028445,0.16462875676001584,0.4707275028450439
0.64325,0.63325,0.69475,0.6295000000000001,0.72425,0.5695,0.8997499999999999,0.825,0.8422499999999999,0.762,0.77625,0.6595,0.4888877084882609,0.5006374163391055,0.6117072134282375,0.5067425321313208,0.5239829307177742,0.5921338629794348,0.11052131519781336,0.5088607209485085
0.64275,0.63275,0.6945,0.629,0.7234999999999999,0.569,0.89825,0.82375,0.8420000000000001,0.759,0.775,0.6565000000000001,0.48999256347604375,0.5002974609582492,0.6089981939870392,0.4991465148922761,0.5007965860189667,0.5921338629794348,0.11052131519781336,0.5088607209485085
0.64225,0.63225,0.6942499999999999,0.6285000000000001,0.72275,0.5685,0.8967499999999999,0.8225,0.84175,0.7559999999999999,0.77375,0.6535,0.4900669287156061,0.500084988845214,0.6088175926909594,0.501337126569579,0.4977240398425156,0.5981275674711913,0.10787370694431592,0.5230811551969404
0.6417499999999999,0.6317499999999999,0.6940000000000001,0.628,0.722,0.568,0.8952500000000001,0.82125,0.8415,0.753,0.7725,0.6505,0.49018378837777543,0.5000106236056517,0.608743227451397,0.5036415363131567,0.4959032716164127,0.618959253048226,0.10710084879860406,0.6194031759594759
0.64125,0.63125,0.69375,0.6275,0.72125,0.5675,0.89375,0.82,0.84125,0.75,0.77125,0.6475,0.4905768617868905,0.5002974609582492,0.6084138956761925,0.5058890469957871,0.4951351350166802,0.618959253048226,0.10710084879860406,0.6194031759594759
0.6409999999999999,0.63075,0.69325,0.62725,0.72075,0.5670000000000001,0.89225,0.81975,0.84175,0.7490000000000001,0.7697499999999999,0.6452500000000001,0.490948687984702,0.500658663550409,0.6082120471688091,0.5077951636742617,0.495021337006025,0.6287331979859969,0.10622767842115426,0.6336347812924739
0.64075,0.63025,0.6927500000000001,0.627,0.7202500000000001,0.5665,0.89075,0.8195,0.8422499999999999,0.748,0.76825,0.643,0.4909274407733985,0.5007330287899713,0.608084563900988,0.508620199223702,0.49598862004097455,0.6369835400338281,0.10890528999264616,0.6435000057149735
0.6405,0.62975,0.6922499999999999,0.6267499999999999,0.7197499999999999,0.5660000000000001,0.88925,0.8192499999999999,0.8427500000000001,0.747,0.7667499999999999,0.64075,0.49085307553383617,0.5008286412408371,0.6081695527462021,0.5098150785024408,0.49687055459574253,0.6497566994359275,0.10361007348565147,0.6665940790025404
0.6402500000000001,0.62925,0.69175,0.6265,0.71925,0.5655,0.88775,0.8190000000000001,0.84325,0.746,0.7652500000000001,0.6385000000000001,0.4908743227451397,0.501009242536917,0.6081907999575056,0.510924609134139,0.49743954470463825,0.655750403927684,0.0991870577299649,0.6772496642234344
0.64,0.62875,0.69125,0.62625,0.71875,0.565,0.88625,0.81875,0.84375,0.745,0.76375,0.63625,0.49053436736428346,0.5012217146499522,0.6082970360140232,0.5114935991874149,0.4979231862777327,0.673769891781731,0.11519549717960549,0.7025390563401077
0.64,0.62875,0.69125,0.62625,0.71875,0.565,0.88625,0.81875,0.84375,0.745,0.76375,0.63625,0.49023690640603423,0.5014873047912461,0.608350154042282,0.5112375536912506,0.49826458033750815,0.6812919982949825,0.10633264045098023,0.712995445353863
0.64,0.62875,0.69125,0.62625,0.71875,0.565,0.88625,0.81875,0.84375,0.745,0.76375,0.63625,0.490290024434293,0.5018272601721024,0.6083607776479337,0.5099857755740433,0.49832147934283577,0.6918037676936115,0.10723767626935563,0.7272356519092551
0.64,0.62875,0.69125,0.62625,0.71875,0.565,0.88625,0.81875,0.84375,0.745,0.76375,0.63625,0.4903962604908106,0.5020503558907893,0.6083714012535855,0.5074537697257256,0.49846372685615475,0.6947838323158786,0.09216051865478611,0.7376922072449905
0.639,0.628,0.69025,0.62575,0.718,0.564,0.88625,0.81875,0.8420000000000001,0.74425,0.76325,0.63475,0.4903537660682035,0.5020609794964411,0.6084032720705408,0.504580369901062,0.49889046939611176,0.8528776176356547,0.006186181727838367,0.8560782392599958
0.638,0.62725,0.6892499999999999,0.62525,0.7172499999999999,0.563,0.88625,0.81875,0.84025,0.7434999999999999,0.76275,0.63325,0.4904068840964623,0.5020397322851375,0.6084882609157548,0.5020768136944574,0.49920341392541356,0.8513540147457145,0.0008684765054464864,0.8679321480853878
0.637,0.6265,0.68825,0.62475,0.7165,0.562,0.88625,0.81875,0.8384999999999999,0.74275,0.76225,0.6317499999999999,0.4904493785190694,0.5019972378625306,0.6084882609157548,0.4998008534813534,0.4995448079573792,0.8513540147457145,0.0008684765054464864,0.8679321480853878
0.636,0.62575,0.6872499999999999,0.62425,0.71575,0.561,0.88625,0.81875,0.83675,0.742,0.7617499999999999,0.63025,0.4904918729416764,0.50175289493254,0.6086369913948795,0.49758179232919664,0.4999431009946724,0.8429358057986039,0.0,0.8947862623746995
0.635,0.625,0.68625,0.62375,0.715,0.56,0.88625,0.81875,0.835,0.74125,0.76125,0.62875,0.4903006480399448,0.5014766811855944,0.6086688622118347,0.496244665703998,0.500142247513319,0.8429358057986039,0.0,0.8947862623746995
0.635,0.625,0.68625,0.62375,0.715,0.56,0.88625,0.81875,0.835,0.74125,0.76125,0.62875,0.4903643896738553,0.5012854562838628,0.6084882609157548,0.4951635846305834,0.5003982930372932,0.8133837433862903,0.008884408873317833,0.9178649627592583
0.63425,0.6245,0.6865000000000001,0.6232500000000001,0.7142499999999999,0.55925,0.88625,0.8195,0.83575,0.7395,0.76075,0.62775,0.49042813130776586,0.501094231382131,0.6083076596196749,0.4940825035571688,0.5006543385612674,0.6180143469944473,0.3159252312026706,0.8624087414430782
0.6335000000000001,0.624,0.68675,0.62275,0.7134999999999999,0.5585,0.88625,0.82025,0.8365,0.73775,0.7602500000000001,0.6267499999999999,0.4902581536173377,0.5008605120577924,0.6082120471688091,0.49331436695743636,0.5005405405506123,0.6195187720318303,0.32657845852780637,0.8614175399758631
0.63275,0.6235,0.687,0.62225,0.7127500000000001,0.55775,0.88625,0.821,0.8372499999999999,0.736,0.7597499999999999,0.62575,0.49004568150430255,0.5007755232125783,0.6081058111122916,0.49334281643229033,0.5000284495026638,0.6316069067570101,0.3478839876258516,0.8592386995281884
0.6317499999999999,0.623,0.6872499999999999,0.622,0.7120000000000001,0.557,0.88625,0.82175,0.8377500000000001,0.73425,0.7597499999999999,0.62425,0.4901094231382131,0.5007648996069266,0.607999575055774,0.4940256044962215,0.4996870554706982,0.6316069067570101,0.3478839876258516,0.8592386995281884
0.631,0.6225,0.6872499999999999,0.62175,0.7115,0.55625,0.88625,0.82175,0.8372499999999999,0.73225,0.7595000000000001,0.62225,0.4901200467438649,0.5007224051843195,0.607999575055774,0.4947937410403343,0.49911806541742215,0.6300928834565169,0.3523229030465643,0.860818777096258
0.631,0.6225,0.687,0.622,0.71175,0.55625,0.88625,0.821,0.836,0.732,0.7597499999999999,0.62125,0.4900881759269096,0.5005311802825879,0.6080739402953362,0.49570412509776607,0.4985206258614824,0.6331305096469502,0.35853815152169216,0.8596278154278219
0.631,0.6225,0.68675,0.62225,0.7120000000000001,0.55625,0.88625,0.82025,0.83475,0.73175,0.76,0.62025,0.49022628280038244,0.5004568150430256,0.6081695527462021,0.4967283071936629,0.4982076813321806,0.6270744537923042,0.37718950535282664,0.871675490610449
0.631,0.6225,0.6865000000000001,0.6225,0.7122499999999999,0.55625,0.88625,0.8195,0.8334999999999999,0.7315,0.7602500000000001,0.61925,0.4903431424625518,0.5005205566769362,0.6081058111122916,0.4977809387922235,0.49815078232685295,0.6270744537923042,0.37718950535282664,0.871675490610449
0.63125,0.6225,0.68625,0.6225,0.7125,0.55625,0.88625,0.81875,0.8325,0.73125,0.76,0.61875,0.490247530011686,0.5003612025921598,0.6080739402953362,0.49803698431619775,0.4979800853108701,0.6353008095191914,0.37365748787342035,0.8902285786731353
0.63125,0.6225,0.68625,0.6225,0.7125,0.55625,0.88625,0.81875,0.8325,0.73125,0.76,0.61875,0.49023690640603423,0.5003930734091151,0.6080208222670774,0.4984068278508271,0.49800853481353397,0.6375382598858773,0.3745494006834476,0.8935869283329093
0.63075,0.62225,0.6865000000000001,0.6225,0.7120000000000001,0.556,0.8855,0.81825,0.8325,0.73125,0.75925,0.6182500000000001,0.49032189525124825,0.5005842983108467,0.6080208222670774,0.4987482218827928,0.49812233282418916,0.6375382598858773,0.3745494006834476,0.8935869283329093
0.63025,0.622,0.68675,0.6225,0.7115,0.5557500000000001,0.8847499999999999,0.8177500000000001,0.8325,0.73125,0.7585,0.61775,0.4903431424625518,0.5005311802825879,0.6080101986614257,0.4992318634280774,0.49846372685615475,0.6375382598858773,0.3745494006834476,0.8935869283329093
0.62975,0.62175,0.687,0.6225,0.711,0.5555,0.884,0.8172499999999999,0.8325,0.73125,0.75775,0.61725,0.4902687772229895,0.5004036970147668,0.6080739402953362,0.499573257460043,0.4987482218827928,0.6420275393402508,0.3825568928964958,0.9058225523550957
0.62925,0.6214999999999999,0.6872499999999999,0.6225,0.7105,0.55525,0.88325,0.81675,0.8325,0.73125,0.757,0.61675,0.4904175077021141,0.5005311802825879,0.608042069478381,0.4999146514920086,0.49920341392541356,0.6480692071370632,0.3887702682302138,0.9101773732627138
0.62875,0.62125,0.6875,0.6225,0.71,0.555,0.8825,0.81625,0.8325,0.73125,0.75625,0.61625,0.4904068840964623,0.500350578986508,0.6081376819292468,0.5002560455239742,0.4998862019893448,0.6480692071370632,0.3887702682302138,0.9101773732627138
0.62875,0.62125,0.6875,0.6225,0.71,0.555,0.8825,0.81625,0.8325,0.73125,0.75625,0.61625,0.49042813130776586,0.5000212472113035,0.6080633166896845,0.5006258890586036,0.5003982930372932,0.6510636598171639,0.3932251273898682,0.9220273691446816
0.62825,0.62075,0.68675,0.622,0.7095,0.5545,0.882,0.81625,0.83175,0.73075,0.7565000000000001,0.61625,0.49053436736428346,0.49978752788696484,0.6080101986614257,0.5009388335879055,0.5006543385612674,0.6510636598171639,0.3932251273898682,0.9220273691446816
0.62775,0.62025,0.6859999999999999,0.6214999999999999,0.7090000000000001,0.5539999999999999,0.8815000000000001,0.81625,0.831,0.7302500000000001,0.7567499999999999,0.61625,0.49065122702645275,0.49969191543609903,0.6081164347179433,0.5016216216240268,0.500995732593233,0.6510204956436632,0.4012185600238634,0.9253867042309236
0.62725,0.61975,0.68525,0.621,0.7084999999999999,0.5535,0.8809999999999999,0.81625,0.83025,0.7297499999999999,0.757,0.61625,0.49065122702645275,0.4994263252948051,0.6083182832253267,0.5023044096601482,0.5012517781172072,0.6525393087388798,0.40655127241449224,0.9285491778704532
0.6267499999999999,0.61925,0.6845,0.6204999999999999,0.708,0.5529999999999999,0.8805,0.81625,0.8295,0.72925,0.75725,0.61625,0.49075746308297036,0.4994369489004568,0.6084245192818443,0.5031578947122524,0.501280227619871,0.7281584870433392,0.4820101680947185,0.9283004727370889
0.62625,0.61875,0.68375,0.62,0.7075,0.5525,0.88,0.81625,0.82875,0.72875,0.7575,0.61625,0.49085307553383617,0.4997237862530543,0.6085626261553171,0.5038975818371308,0.5016785206293544,0.7455264881203614,0.48644722139250013,0.9269390598016057
0.62625,0.61875,0.68375,0.62,0.7075,0.5525,0.88,0.81625,0.82875,0.72875,0.7575,0.61625,0.49078933389992563,0.5000212472113035,0.6087219802400935,0.504438122415553,0.5020483641639838,0.7455264881203614,0.48644722139250013,0.9269390598016057
0.62625,0.61875,0.68375,0.62,0.7075,0.5525,0.88,0.81625,0.82875,0.72875,0.7575,0.61625,0.490640603420801,0.500223095718687,0.6087750982683523,0.5043527739353714,0.5025320057370782,0.7553819716104105,0.48910419535304694,0.9188813026057354
0.6255,0.6185,0.6827500000000001,0.62,0.70675,0.55175,0.8797499999999999,0.8170000000000001,0.82875,0.7282500000000001,0.75825,0.618,0.4906937214490598,0.5005099330712844,0.6089769467757357,0.5037837839099052,0.5047510669726646,0.7621998289100265,0.4926474626993914,0.9143510882922357
0.62475,0.6182500000000001,0.68175,0.62,0.706,0.551,0.8795000000000001,0.8177500000000001,0.82875,0.72775,0.759,0.61975,0.4904175077021141,0.5006692871560607,0.6092106661000743,0.5030156473657924,0.5075960172390447,0.7705460975679691,0.4979726715059018,0.9068600588619742
0.624,0.618,0.6807500000000001,0.62,0.70525,0.55025,0.87925,0.8184999999999999,0.82875,0.72725,0.7597499999999999,0.6214999999999999,0.4901094231382131,0.5008392648464889,0.6095506214809306,0.5018492177009569,0.5108961595480456,0.7849148374965038,0.5112753802259448,0.9011507830301261
0.6232500000000001,0.61775,0.67975,0.62,0.7045,0.5495,0.879,0.8192499999999999,0.82875,0.72675,0.7605,0.6232500000000001,0.4899606926590885,0.5009986189312653,0.6098693296504833,0.5008819345825778,0.5142247513319004,0.7872817897205237,0.5254643823317854,0.8879606709293618
0.6225,0.6175,0.67875,0.62,0.70375,0.54875,0.87875,0.82,0.82875,0.72625,0.76125,0.625,0.4897800913630086,0.5010517369595241,0.6099330712843939,0.4999146514920086,0.5180654341080839,0.785058736748503,0.5387689641932383,0.8782957069245644
0.6225,0.6175,0.67875,0.62,0.70375,0.54875,0.87875,0.82,0.82875,0.72625,0.76125,0.625,0.4895994900669287,0.5009879953256136,0.6098055880165728,0.4988051209437401,0.5206258895146851,0.785058736748503,0.5387689641932383,0.8782957069245644
0.62225,0.617,0.67875,0.6195,0.7034999999999999,0.54775,0.87775,0.8190000000000001,0.83025,0.728,0.7635,0.6325,0.489631360883884,0.5010517369595241,0.610103048974822,0.49729729727474875,0.5235277386195337,0.7965049736229365,0.5467183449486649,0.8552510312650559
0.622,0.6164999999999999,0.67875,0.619,0.70325,0.54675,0.8767499999999999,0.818,0.83175,0.7297499999999999,0.76575,0.64,0.489588866461277,0.5009030064803994,0.6102624030595984,0.49613086766553294,0.5259743956817615,0.6672590295123343,0.5890978718480168,0.6958267389169348
0.62175,0.616,0.67875,0.6185,0.703,0.5457500000000001,0.87575,0.8170000000000001,0.83325,0.7315,0.768,0.6475,0.4891745458408584,0.5006267927334538,0.6102836502709019,0.4949075389953698,0.5292176389298151,0.6341233790057845,0.5988245552840004,0.6681949480686505
0.6214999999999999,0.6154999999999999,0.67875,0.618,0.7027500000000001,0.5447500000000001,0.8747499999999999,0.816,0.83475,0.7332500000000001,0.7702500000000001,0.655,0.48918516944651014,0.5006905343673643,0.6108148305534898,0.4941109529207834,0.5323470838334953,0.6341233790057845,0.5988245552840004,0.6681949480686505
0.62125,0.615,0.67875,0.6175,0.7025,0.54375,0.87375,0.815,0.83625,0.735,0.7725,0.6625,0.48911080420694786,0.5005524274938914,0.611643471794327,0.49408250333469006,0.5372119487055758,0.5234572540372018,0.6137882886769627,0.5797434259611703
0.62125,0.615,0.67875,0.6175,0.7025,0.54375,0.87375,0.815,0.83625,0.735,0.7725,0.6625,0.48923828747476894,0.501009242536917,0.6119196855412727,0.5002275957988316,0.5476244676260617,0.5234572540372018,0.6137882886769627,0.5797434259611703
0.62125,0.615,0.67875,0.6175,0.7025,0.54375,0.87375,0.815,0.83625,0.735,0.7725,0.6625,0.4903962604908106,0.5034739190481249,0.6185913098905769,0.501024181873418,0.565661452926728,0.4850561252366432,0.6137480051181716,0.5481522390852702
0.62375,0.61725,0.68125,0.61925,0.70475,0.5447500000000001,0.8759999999999999,0.81575,0.84025,0.7434999999999999,0.7752500000000001,0.6735,0.49174545840858386,0.5047275045150325,0.6250610857324976,0.5036130866436338,0.5874822221651095,0.3924958164691088,0.6180706976236414,0.45653672518124033
0.62625,0.6195,0.68375,0.621,0.7070000000000001,0.5457500000000001,0.87825,0.8165,0.84425,0.752,0.778,0.6845,0.4921704026346542,0.5054180388823967,0.6336024646765112,0.5038406826649442,0.6161024236803431,0.3924958164691088,0.6180706976236414,0.45653672518124033
0.62875,0.62175,0.68625,0.62275,0.7092499999999999,0.54675,0.8805,0.8172499999999999,0.8482500000000001,0.7605,0.78075,0.6955,0.4910018060129608,0.5055455221502178,0.636906406034208,0.5030156471155038,0.6516074038946816,0.36315958426113043,0.6171469193726885,0.4288963768795041
0.63125,0.624,0.68875,0.6245,0.7115,0.54775,0.88275,0.818,0.85225,0.769,0.7835,0.7065,0.4896419844895358,0.5049824710506746,0.6402847126314671,0.49627311512323224,0.680512098823582,0.3360656108882249,0.6126742212957249,0.39965847094476314
0.63375,0.62625,0.69125,0.62625,0.71375,0.54875,0.885,0.81875,0.85625,0.7775,0.78625,0.7175,0.4866142568787847,0.5044937851906938,0.6378519069372145,0.495590327059301,0.7056330098147674,0.25853032795780495,0.6259047589790934,0.3267831098103482
0.63375,0.62625,0.69125,0.62625,0.71375,0.54875,0.885,0.81875,0.85625,0.7775,0.78625,0.7175,0.48438329969191546,0.5041644534154892,0.6343992351003931,0.4951351350166802,0.7272261814744869,0.25853032795780495,0.6259047589790934,0.3267831098103482
0.63425,0.62625,0.69125,0.6267499999999999,0.71475,0.55,0.88875,0.81875,0.85675,0.7802500000000001,0.7875,0.72075,0.4836396472962924,0.5094762562413683,0.6257091256772549,0.5026173542450697,0.7448079716178294,0.15026471178680056,0.7119109613469667,0.20447799671502837
0.63475,0.62625,0.69125,0.62725,0.71575,0.55125,0.8925,0.81875,0.85725,0.7829999999999999,0.78875,0.7240000000000001,0.4802825879103368,0.5148093062785509,0.6229682354191013,0.5173826457104346,0.7505832183503636,0.15026471178680056,0.7119109613469667,0.20447799671502837
0.63525,0.62625,0.69125,0.62775,0.71675,0.5525,0.89625,0.81875,0.85775,0.7857500000000001,0.79,0.72725,0.4782428556251992,0.5175608201423563,0.6266971210028683,0.542788051895117,0.7513229051415239,0.11342077046023603,0.7367428885001889,0.16433442733178852
0.63575,0.62625,0.69125,0.62825,0.7177500000000001,0.55375,0.9,0.81875,0.8582500000000001,0.7885,0.79125,0.7304999999999999,0.4788696483586529,0.5200573674705194,0.6214065653882928,0.5765860602810366,0.7439829312850952,0.10893149100586255,0.7376226148725731,0.1508836311634768
0.63625,0.62625,0.69125,0.62875,0.71875,0.555,0.90375,0.81875,0.85875,0.79125,0.7925,0.73375,0.47907149686603634,0.5235312865186444,0.6165622012110911,0.6148221913049879,0.7299288786933882,0.09914314867342613,0.7509337637474394,0.13724027666073185
0.63625,0.62625,0.69125,0.62875,0.71875,0.555,0.90375,0.81875,0.85875,0.79125,0.7925,0.73375,0.47613938170615105,0.5224264315308615,0.6145118453203017,0.651891894638603,0.7067709834694346,0.09092639120964918,0.7677872323794662,0.11470386846667567
0.63625,0.62625,0.69125,0.62875,0.71875,0.555,0.90375,0.81875,0.85875,0.79125,0.7925,0.73375,0.47712737703176455,0.5198767661744396,0.6107935833421864,0.6875391233396052,0.6820199176536597,0.11755114209947491,0.7837366127823016,0.04057197853801178
0.63625,0.62625,0.69125,0.62875,0.71875,0.555,0.90375,0.81875,0.85875,0.79125,0.7925,0.73375,0.47657494953787316,0.5188356528205673,0.5973972166153192,0.7133712705347031,0.6581507844459633,0.11680851850706182,0.7935026211694134,0.035031748364898606
0.6367499999999999,0.6265,0.69175,0.629,0.7195,0.5565,0.90425,0.82,0.86,0.7925,0.7927500000000001,0.73425,0.47497078508445767,0.5150324019972379,0.5910443004355679,0.7291891954618883,0.6361877693906637,0.11680851850706182,0.7935026211694134,0.035031748364898606
0.63725,0.6267499999999999,0.6922499999999999,0.62925,0.7202500000000001,0.5579999999999999,0.9047499999999999,0.82125,0.86125,0.79375,0.7929999999999999,0.7347499999999999,0.47192181026240304,0.5080101986614257,0.5869329650483374,0.7309530642377062,0.6148221917499455,0.1123288279789668,0.79083064004063,0.024362701067954677
0.63775,0.627,0.6927500000000001,0.6295000000000001,0.721,0.5595,0.9052500000000001,0.8225,0.8625,0.795,0.79325,0.7352500000000001,0.4750345267183682,0.49774779560182725,0.5866992457239988,0.7106401173890631,0.5833285934969415,0.10931038897792232,0.7908287668992202,0.020198636464896086
0.63825,0.62725,0.69325,0.62975,0.72175,0.561,0.90575,0.82375,0.86375,0.79625,0.7935,0.73575,0.47766918092000427,0.4901200467438649,0.5845426537766918,0.668961594679532,0.5386913236227691,0.10931038897792232,0.7908287668992202,0.020198636464896086
0.63875,0.6275,0.69375,0.63,0.7225,0.5625,0.90625,0.825,0.865,0.7975,0.79375,0.73625,0.47746733241262085,0.48610432380750024,0.58259853394242,0.6074253211685967,0.4856898996873408,0.10104566820908945,0.7908231474749906,0.009707629969560068
0.63875,0.6275,0.69375,0.63,0.7225,0.5625,0.90625,0.825,0.865,0.7975,0.79375,0.73625,0.47415276744927226,0.4849675980027621,0.5806331668968447,0.5438975804132666,0.4380654320612791,0.10104566820908945,0.7908231474749906,0.009707629969560068
0.63875,0.6275,0.69375,0.63,0.7225,0.5625,0.90625,0.825,0.865,0.7975,0.79375,0.73625,0.47113566344417296,0.48890895569956444,0.5763943482417933,0.4914366980574149,0.40238975544277444,0.09804161726587848,0.7943701611041548,0.008525076940172776
0.63875,0.6275,0.69375,0.63,0.7225,0.5625,0.90625,0.825,0.865,0.7975,0.79375,0.73625,0.4645808987570381,0.49600552427493894,0.5684478912142781,0.4633001405069227,0.3886486455171094,0.09804161726587848,0.7943701611041548,0.008525076940172776
0.63925,0.6275,0.69375,0.62975,0.72275,0.56225,0.9072499999999999,0.82625,0.865,0.7979999999999999,0.79425,0.737,0.4592478487198555,0.5026771486242431,0.5639966004461914,0.4550213350927074,0.39422474792797496,0.08596307146697714,0.79969817962278,0.003571864563686544
0.63975,0.6275,0.69375,0.6295000000000001,0.723,0.562,0.90825,0.8275,0.865,0.7985,0.79475,0.73775,0.4576755550833953,0.5058961011367258,0.5636991394879423,0.4707539102604582,0.414224748105958,0.08596307146697714,0.8032498871239477,0.00514929223494698
0.6402500000000001,0.6275,0.69375,0.62925,0.7232500000000001,0.56175,0.90925,0.82875,0.865,0.799,0.79525,0.7384999999999999,0.45839796026771484,0.5065547646871348,0.5653245511526612,0.4906401134289406,0.4308961577237195,0.08596307146697714,0.8032498871239477,0.00514929223494698
0.64075,0.6275,0.69375,0.629,0.7234999999999999,0.5615,0.91025,0.83,0.865,0.7995,0.7957500000000001,0.73925,0.45968341655157763,0.5048124933602465,0.5683097843408053,0.50532005713718,0.44014224617288433,0.08219242928407296,0.80236359373815,0.005149278478993747
0.64125,0.6275,0.69375,0.62875,0.72375,0.56125,0.91125,0.83125,0.865,0.8,0.79625,0.74,0.4605970466376288,0.5023796876659938,0.5711887814724317,0.5131721197611496,0.44330014121885486,0.08219242928407296,0.80236359373815,0.005149278478993747
0.64125,0.6275,0.69375,0.62875,0.72375,0.56125,0.91125,0.83125,0.865,0.8,0.79625,0.74,0.4594284500159354,0.5001168596621693,0.574779560182726,0.515704125470418,0.44477951569109064,0.08446824469270435,0.7979246783174373,0.005146606072443
0.64125,0.6275,0.69375,0.62875,0.72375,0.56125,0.91125,0.83125,0.865,0.8,0.79625,0.74,0.45731435249123553,0.4984808243917986,0.5778179113991289,0.5147937413851764,0.44298719721794017,0.08822929794933007,0.796148356281501,0.004948040138070747
0.6415000000000001,0.628,0.6934999999999999,0.62875,0.7240000000000001,0.562,0.9115000000000001,0.8305,0.86375,0.8009999999999999,0.79625,0.7404999999999999,0.4549877828535005,0.49688728354403483,0.5808243917985765,0.5128591750927985,0.4403129434669656,0.08748188456219379,0.7979246783174373,0.004548434698826778
0.6417499999999999,0.6285000000000001,0.69325,0.62875,0.72425,0.56275,0.91175,0.82975,0.8625,0.802,0.79625,0.741,0.4529905449909699,0.4955487092319133,0.5838521194093276,0.5118349931081412,0.4357894727380902,0.08748188456219379,0.7979246783174373,0.004548434698826778
0.642,0.629,0.693,0.62875,0.7245,0.5635,0.912,0.8290000000000001,0.86125,0.8029999999999999,0.79625,0.7415,0.4510889195793052,0.4939020503558908,0.5870179538935515,0.5091038409358458,0.4287908952496543,0.08521086828511745,0.8050308920134087,0.0039578741189718394
0.64225,0.6295000000000001,0.6927500000000001,0.62875,0.7247499999999999,0.5642499999999999,0.9122499999999999,0.82825,0.86,0.804,0.79625,0.742,0.4510570487623499,0.49236162753638585,0.5892595346860725,0.5078520628464485,0.41965860380999015,0.08445865576642596,0.7997000527641898,0.004354421984974543
0.6425,0.63,0.6925,0.62875,0.725,0.565,0.9125,0.8275,0.85875,0.805,0.79625,0.7425,0.4516200998618931,0.49070434505471155,0.5908849463507915,0.5058036986546548,0.40907538937525323,0.0837064432477344,0.7952602007727723,0.004754816515717588
0.6425,0.63,0.6925,0.62875,0.725,0.565,0.9125,0.8275,0.85875,0.805,0.79625,0.7425,0.4525656007648996,0.4895038776160629,0.5920429193668331,0.5032432433592929,0.3980369824529379,0.08746269737280506,0.7997009893348948,0.004158314614607336
0.6425,0.63,0.6925,0.62875,0.725,0.565,0.9125,0.8275,0.85875,0.805,0.79625,0.7425,0.453691702963986,0.48848401147349413,0.592531605226814,0.49980085356478293,0.38918918620677084,0.08746269737280506,0.7997009893348948,0.004158314614607336
0.6425,0.63,0.6927500000000001,0.62875,0.725,0.5655,0.9129999999999999,0.8275,0.8582500000000001,0.80475,0.7959999999999999,0.743,0.4549877828535005,0.48801657282481675,0.5924784871985552,0.49467994311310864,0.3850355588734756,0.08445865576642596,0.7961492928522059,0.00554210223329401
0.6425,0.63,0.693,0.62875,0.725,0.5660000000000001,0.9135,0.8275,0.85775,0.8045,0.7957500000000001,0.7434999999999999,0.4564007224051843,0.48745352172527356,0.5917135875916286,0.4899573256987276,0.38287339789466013,0.08445865576642596,0.7961492928522059,0.00554210223329401
0.6425,0.63,0.69325,0.62875,0.725,0.5665,0.914,0.8275,0.85725,0.80425,0.7955,0.7440000000000001,0.4584617019016254,0.48852650589610114,0.5909274407733984,0.48244665677300536,0.38597439265605,0.08899589852585522,0.8032555065481773,0.0049566551164180045
0.6425,0.63,0.6934999999999999,0.62875,0.725,0.5670000000000001,0.9145,0.8275,0.85675,0.804,0.79525,0.7445,0.46076702432805694,0.49027940082864124,0.5885902475300117,0.47504978585793833,0.39348506113681464,0.08521565807984077,0.8023664144687437,0.005745365200424614
0.6425,0.63,0.69375,0.62875,0.725,0.5675,0.915,0.8275,0.85625,0.80375,0.795,0.745,0.4628598746414533,0.49353022415807923,0.5854350366514395,0.471436698769347,0.41328591565825634,0.08748668369374892,0.7988100241140512,0.006541269647971893
0.6425,0.63,0.69375,0.62875,0.725,0.5675,0.915,0.8275,0.85625,0.80375,0.795,0.745,0.47288855837671306,0.49841708275788804,0.579613300754276,0.4718349918622599,0.44349928687539614,0.08521086828511745,0.7943748439576794,0.004557877535450405
0.6425,0.63,0.69375,0.62875,0.725,0.5675,0.915,0.8275,0.85625,0.80375,0.795,0.745,0.48298098374588333,0.47136938276851165,0.6108679485817486,0.4276813641729986,0.4451778074491308,0.0867152839856687,0.7970412056622332,0.004949254413578833
0.6425,0.63,0.69375,0.62875,0.725,0.5675,0.915,0.8275,0.85625,0.80375,0.795,0.745,0.4853819186231807,0.4771061298204611,0.6040475937533198,0.38165006936354623,0.4436130856647271,0.08371124237928954,0.801478247941536,0.003357870702493273
0.64225,0.62975,0.6940000000000001,0.6285000000000001,0.725,0.5675,0.91525,0.8272499999999999,0.85575,0.8045,0.795,0.7447499999999999,0.4872410496122384,0.48234356740677786,0.5988101561670031,0.3358179211005502,0.43900426673376863,0.08371124237928954,0.801478247941536,0.003357870702493273
0.642,0.6295000000000001,0.6942499999999999,0.62825,0.725,0.5675,0.9155,0.8270000000000001,0.8552500000000001,0.80525,0.795,0.7445,0.4916179751407628,0.49000318708169555,0.6194305747370658,0.2813371222479285,0.4062588898073604,0.08822929794933007,0.7970393325208234,0.005746385642046232
0.6417499999999999,0.62925,0.6945,0.628,0.725,0.5675,0.9157500000000001,0.82675,0.8547499999999999,0.8059999999999999,0.795,0.74425,0.4869435886539892,0.5047806225432911,0.6351641347073197,0.282361304232586,0.35431009933375257,0.08821970902305167,0.7997028734947835,0.004952966019869247
0.6415000000000001,0.629,0.69475,0.62775,0.725,0.5675,0.9159999999999999,0.8265,0.85425,0.80675,0.795,0.7440000000000001,0.48175926909593114,0.531764580898757,0.6079464570275152,0.34483641152609557,0.33112375352255113,0.14471226596682504,0.7855185652609464,0.030296150166388244
0.64125,0.62875,0.695,0.6275,0.725,0.5675,0.91625,0.82625,0.85375,0.8075,0.795,0.74375,0.4830978434080527,0.5228088813343249,0.622713268883459,0.39567567248039925,0.3108961566558213,0.1514677719035515,0.694955318360271,0.02615296084763082
0.64125,0.62875,0.695,0.6275,0.725,0.5675,0.91625,0.82625,0.85375,0.8075,0.795,0.74375,0.48582811006055454,0.5179751407627748,0.6363114841177095,0.43399715226263064,0.29502133411380077,0.1514677719035515,0.694955318360271,0.02615296084763082
0.64125,0.62875,0.695,0.6275,0.725,0.5675,0.91625,0.82625,0.85375,0.8075,0.795,0.74375,0.48578561563794753,0.5138106873472856,0.6244130457877404,0.49177809364673203,0.29516358171054935,0.12735865294763635,0.7864151609244985,0.04669044395688343
0.64125,0.62875,0.695,0.6275,0.725,0.5675,0.91625,0.82625,0.85375,0.8075,0.795,0.74375,0.48748539254222883,0.4926590884946351,0.626495272495485,0.4970128021368714,0.3006543332495864,0.10849103530161805,0.744685702242202,0.049460387719295215
0.64125,0.62875,0.695,0.6275,0.725,0.5675,0.91625,0.82625,0.85375,0.8075,0.795,0.74375,0.4964942101349198,0.4944757250610857,0.6367576755550834,0.4748506392002425,0.33135134754155243,0.10849103530161805,0.744685702242202,0.049460387719295215
0.64125,0.6285000000000001,0.69475,0.6275,0.7245,0.56525,0.9157500000000001,0.8255,0.8545,0.8077500000000001,0.795,0.7445,0.5056730054180388,0.4982152342505046,0.6431424625517901,0.46825035413728316,0.3598861990748727,0.09868831424817988,0.757115262621753,0.05142690878044744
0.64125,0.62825,0.6945,0.6275,0.7240000000000001,0.563,0.91525,0.82475,0.8552500000000001,0.8079999999999999,0.795,0.7452500000000001,0.5053436736428344,0.4979921385318177,0.639891639222352,0.48224750944787315,0.3910953034692523,0.14009828378667274,0.764228032312659,0.06606808386499467
0.64125,0.628,0.6942499999999999,0.6275,0.7234999999999999,0.5607500000000001,0.91475,0.8240000000000001,0.856,0.80825,0.795,0.746,0.5047806225432911,0.49303091469244664,0.6383724636141507,0.48426742410919316,0.4225889021672139,0.1483726028186158,0.7482505327517178,0.07318902688110847
0.64125,0.62775,0.6940000000000001,0.6275,0.723,0.5585,0.91425,0.82325,0.85675,0.8085,0.795,0.74675,0.503558907893339,0.496749176670562,0.6304791246148943,0.484125176623684,0.4557610236636981,0.1483726028186158,0.7482505327517178,0.07318902688110847
0.64125,0.6275,0.69375,0.6275,0.7225,0.55625,0.91375,0.8225,0.8575,0.80875,0.795,0.7475,0.49589928821842133,0.497057261234463,0.6205566769361521,0.4949928871418332,0.4650071121128629,0.13524447574440945,0.776771005895338,0.23502794296801802
0.64125,0.6275,0.69375,0.6275,0.7225,0.55625,0.91375,0.8225,0.8575,0.80875,0.795,0.7475,0.48811218527568256,0.4974609582492298,0.6105811112291512,0.5061166431561467,0.47479374102921035,0.3304891787473055,0.8062077537057926,0.3412637279098462
0.64125,0.6275,0.69375,0.6275,0.7225,0.55625,0.91375,0.8225,0.8575,0.80875,0.795,0.7475,0.48823966854350365,0.49784340805269306,0.6110379262721768,0.509615932011604,0.4783783781979902,0.368200446392062,0.801782886845654,0.34837167655231993
0.64125,0.6275,0.69375,0.6275,0.7225,0.55625,0.91375,0.8225,0.8575,0.80875,0.795,0.7475,0.48878147243174336,0.4986295548709232,0.6102305322426431,0.5122901852620013,0.48184921746735415,0.368200446392062,0.801782886845654,0.34837167655231993
0.6395000000000001,0.62575,0.6927500000000001,0.627,0.72125,0.5545,0.9095,0.821,0.8552500000000001,0.80175,0.7925,0.7425,0.489015191756082,0.4990863699139488,0.6092850313396366,0.5128022763655694,0.4838122330121072,0.44510821019273744,0.8053861498095086,0.3892575496860654
0.63775,0.624,0.69175,0.6265,0.72,0.55275,0.9052500000000001,0.8195,0.853,0.79475,0.79,0.7375,0.4889195793052162,0.49950069053436735,0.6088919579305216,0.511465149712561,0.4843812229541438,0.4692125393539292,0.8027385415560113,0.40524800495534463
0.635,0.62125,0.6895,0.6255,0.7175,0.5507500000000001,0.898,0.81625,0.85,0.7825,0.7859999999999999,0.7234999999999999,0.48889833209391265,0.4995856793795814,0.6083926484648889,0.5100426745237512,0.4848364149967646,0.5135881854568556,0.8001359217517875,0.46919461820089187
0.63225,0.6185,0.6872499999999999,0.6245,0.715,0.54875,0.89075,0.813,0.847,0.7702500000000001,0.782,0.7095,0.4890364389673855,0.4995431849569744,0.6082545415914161,0.5087055478707427,0.4846088189754542,0.5450323568373541,0.8099919180559251,0.5715912066344513
0.6295000000000001,0.61575,0.685,0.6235,0.7125,0.54675,0.8835,0.80975,0.8440000000000001,0.758,0.778,0.6955,0.4893020291086795,0.4995644321682779,0.6083820248592372,0.5076529161887525,0.4844381219038517,0.5450323568373541,0.8099919180559251,0.5715912066344513
0.6285000000000001,0.61475,0.68375,0.623,0.71125,0.5465,0.8805,0.8079999999999999,0.84325,0.75275,0.7765000000000001,0.6865000000000001,0.48962073727823224,0.4994900669287156,0.6089875703813874,0.5072546230958397,0.48551920306069585,0.5479788462123989,0.8171150120615431,0.598023554643861
0.6275,0.61375,0.6825,0.6225,0.71,0.54625,0.8775,0.80625,0.8425,0.7475,0.775,0.6775,0.48948263040475937,0.49945819611176034,0.6088600871135663,0.5080512091704261,0.48668563264210185,0.564369206303284,0.8038601015028886,0.6777476672466928
0.6275,0.61375,0.6825,0.6225,0.71,0.54625,0.8775,0.80625,0.8425,0.7475,0.775,0.6775,0.4893976415595453,0.4997981514926166,0.6088494635079146,0.5083641537275377,0.4872830720589924,0.57032934488465,0.8029972554401508,0.7014270463399799
0.627,0.6132500000000001,0.68175,0.622,0.7090000000000001,0.5457500000000001,0.8775,0.80625,0.84025,0.7447499999999999,0.77225,0.6707500000000001,0.4893551471369383,0.5001274832678211,0.6088494635079146,0.5081365577062273,0.4877382641016132,0.57032934488465,0.8029972554401508,0.7014270463399799
0.6265,0.61275,0.6809999999999999,0.6214999999999999,0.708,0.54525,0.8775,0.80625,0.838,0.742,0.7695000000000001,0.664,0.4893763943482418,0.5004461914373739,0.608743227451397,0.507254623207079,0.48816500666938006,0.6132053650817486,0.8083862061469912,0.7675397595194262
0.626,0.61225,0.68025,0.621,0.7070000000000001,0.5447500000000001,0.8775,0.80625,0.83575,0.73925,0.7667499999999999,0.6572499999999999,0.48948263040475937,0.5005311802825879,0.6086688622118347,0.5065433856682939,0.48850640081258506,0.6282543772398069,0.8013062274492369,0.7872782968649258
0.6255,0.61175,0.6795,0.6204999999999999,0.706,0.54425,0.8775,0.80625,0.8334999999999999,0.7365,0.764,0.6505,0.48961011367258045,0.5006161691278019,0.6087113566344418,0.5058605976043626,0.48893314338035193,0.6402897495283757,0.7995505320057668,0.8050386005803662
0.625,0.61125,0.67875,0.62,0.705,0.54375,0.8775,0.80625,0.83125,0.73375,0.76125,0.64375,0.48980133857431213,0.5004993094656326,0.6088813343248699,0.5056045521081983,0.48978662851588567,0.6726635985899555,0.8155683041070201,0.8417462217211055
0.625,0.61125,0.67875,0.62,0.705,0.54375,0.8775,0.80625,0.83125,0.73375,0.76125,0.64375,0.4901094231382131,0.5004780622543291,0.6089769467757357,0.5053485066120339,0.4909246087336771,0.6839563566229431,0.8138116610743662,0.8589091419038875
0.625,0.61125,0.67875,0.62,0.705,0.54375,0.8775,0.80625,0.83125,0.73375,0.76125,0.64375,0.4903962604908106,0.5005949219164985,0.6091787952831191,0.50532005713718,0.4923186343920132,0.6867781059248818,0.8751621768587284,0.9472646749697101
0.625,0.61125,0.67875,0.62,0.705,0.54375,0.8775,0.80625,0.83125,0.73375,0.76125,0.64375,0.49070434505471155,0.5007542760012749,0.6091575480718155,0.504779516558758,0.4941394024790669,0.6618496239558307,0.8627213776307183,0.941152774892154
0.6245,0.611,0.6785,0.6195,0.7045,0.54375,0.8767499999999999,0.807,0.83025,0.73225,0.7605,0.64075,0.49071496866036335,0.5007755232125783,0.6089981939870392,0.5037268849323875,0.49667140818833533,0.6626402108532996,0.8245145707207789,0.9151538169431278
0.624,0.6104999999999999,0.6785,0.619,0.70375,0.5435,0.8755,0.807,0.8284999999999999,0.7302500000000001,0.75875,0.6375,0.49056623818123873,0.5008073940295337,0.6086263677892276,0.50224751076606,0.49908961594256823,0.6626402108532996,0.8245145707207789,0.9151538169431278
0.6235,0.61,0.6785,0.6185,0.703,0.54325,0.87425,0.807,0.82675,0.7282500000000001,0.757,0.63425,0.4904493785190694,0.5006161691278019,0.6084776373101031,0.5007965861023963,0.501337126569579,0.6528902802469678,0.8209319453678695,0.8875614394019373
0.623,0.6095,0.6785,0.618,0.7022499999999999,0.5429999999999999,0.873,0.807,0.825,0.72625,0.7552500000000001,0.631,0.49032189525124825,0.500435567831722,0.6082226707744609,0.4993456614387326,0.5031294452095886,0.6536520816919378,0.8155973598358307,0.8832383559795092
0.6225,0.609,0.6785,0.6175,0.7015,0.54275,0.87175,0.807,0.82325,0.72425,0.7535,0.62775,0.4899288218421332,0.5002762137469458,0.6081907999575056,0.4984068278508271,0.5042105263386228,0.6476152130266806,0.8093755553657683,0.8757444740647635
0.6225,0.60875,0.67875,0.6175,0.70125,0.5425,0.87125,0.80625,0.8225,0.72375,0.7525,0.6275,0.4897907149686604,0.5003399553808563,0.6081695527462021,0.4980938833215253,0.5042958748744241,0.6234965051444871,0.7782609466466632,0.8602328635275132
0.6225,0.60875,0.67875,0.6175,0.70125,0.5425,0.87125,0.80625,0.8225,0.72375,0.7525,0.6275,0.4896526080951875,0.5003612025921598,0.6082757888027197,0.49829302984017193,0.5042105263942425,0.6189640521797811,0.7693784109147553,0.8574777736935103
0.6225,0.60875,0.67875,0.6175,0.70125,0.5425,0.87125,0.80625,0.8225,0.72375,0.7525,0.6275,0.48934452353128655,0.5004993094656326,0.6082651651970679,0.49843527735349097,0.503840682887423,0.6234869068813768,0.7498454134959112,0.8563005304620709
0.62225,0.609,0.67825,0.61725,0.701,0.542,0.872,0.80675,0.8227500000000001,0.7240000000000001,0.753,0.62875,0.4891957930521619,0.5004461914373739,0.6084138956761925,0.49860597436947374,0.5036130868661125,0.6310138125261835,0.7462853209323146,0.8567294173235823
0.622,0.60925,0.6777500000000001,0.617,0.70075,0.5415,0.87275,0.8072499999999999,0.823,0.72425,0.7535,0.63,0.4892701582917242,0.5002549665356422,0.6085413789440136,0.49891891889877554,0.5034708393249837,0.6310138125261835,0.7462853209323146,0.8567294173235823
0.62175,0.6095,0.6772499999999999,0.61675,0.7005,0.541,0.8734999999999999,0.8077500000000001,0.82325,0.7245,0.754,0.63125,0.48936577074259,0.5001699776904281,0.6087963454796558,0.4994879089520516,0.5036699857602007,0.631766025044875,0.7338557715712426,0.8579384243015773
0.6214999999999999,0.60975,0.67675,0.6164999999999999,0.70025,0.5405,0.87425,0.80825,0.8234999999999999,0.7247499999999999,0.7545000000000001,0.6325,0.48952512482736643,0.5001487304791247,0.6089981939870392,0.5,0.5041251778028216,0.6385455173025453,0.7347354979436269,0.8542202789312145
0.62125,0.61,0.67625,0.61625,0.7,0.54,0.875,0.80875,0.82375,0.725,0.755,0.63375,0.4897269733347498,0.5001593540847764,0.6091256772548603,0.5005974395559398,0.504893314402554,0.6377933047838539,0.7320672630976632,0.8548233274155225
0.62125,0.61,0.67625,0.61625,0.7,0.54,0.875,0.80875,0.82375,0.725,0.755,0.63375,0.48967385530649105,0.500308084563901,0.6091150536492085,0.5012233286145434,0.5058890470235969,0.6642597777006785,0.7578060881921915,0.8464125224293946
0.62075,0.60975,0.6759999999999999,0.61625,0.69975,0.5397500000000001,0.87425,0.80825,0.82375,0.7254999999999999,0.75625,0.6367499999999999,0.489588866461277,0.5004993094656326,0.6092744077339849,0.5015362731438452,0.507311522156787,0.6690224489275535,0.7692528002555054,0.7545508407401014
0.62025,0.6095,0.6757500000000001,0.61625,0.6995,0.5395,0.8734999999999999,0.8077500000000001,0.82375,0.726,0.7575,0.63975,0.48947200679910763,0.5006905343673643,0.6093487729735472,0.5015362731438452,0.5087055477595034,0.6471939445118249,0.7754446124260521,0.7334386038917993
0.61975,0.60925,0.6755,0.61625,0.6992499999999999,0.53925,0.87275,0.8072499999999999,0.82375,0.7265,0.75875,0.64275,0.4895463720386699,0.5008392648464889,0.6094868798470201,0.5011664296092159,0.5103556189696234,0.6471939445118249,0.7754446124260521,0.7334386038917993
0.61925,0.609,0.67525,0.61625,0.6990000000000001,0.539,0.872,0.80675,0.82375,0.727,0.76,0.64575,0.4892701582917242,0.5010411133538724,0.6101136725804738,0.499288762433405,0.5159032721281139,0.5749433270648024,0.764707964197304,0.6592265842850141
0.61975,0.60975,0.6765000000000001,0.61725,0.70025,0.53925,0.87175,0.8065000000000001,0.82675,0.73375,0.76375,0.659,0.48961011367258045,0.5006267927334538,0.6126633379368958,0.4993741109413964,0.5256899013781795,0.5749433270648024,0.764707964197304,0.6592265842850141
0.62075,0.61075,0.6779999999999999,0.6182500000000001,0.70175,0.5397500000000001,0.87225,0.80675,0.82975,0.74,0.76625,0.66925,0.4893551471369383,0.5050568362902369,0.6149155423350685,0.5029018493551373,0.5392887639295748,0.5455639400201552,0.7584608502812505,0.6302193869451852
0.62175,0.61175,0.6795,0.61925,0.70325,0.54025,0.87275,0.807,0.8327500000000001,0.74625,0.76875,0.6795,0.4914055030277276,0.5066185063210453,0.6230532242643153,0.5031294453764477,0.5586913251356248,0.5192221698291093,0.7548800870512721,0.6008089400890471
0.62275,0.61275,0.6809999999999999,0.62025,0.70475,0.5407500000000001,0.8732500000000001,0.8072499999999999,0.83575,0.7525,0.77125,0.68975,0.4910974184638266,0.5039307340911505,0.6312652714331244,0.5037837839377151,0.593541965870971,0.32493592062296167,0.7218391397062578,0.4158329008336583
0.62375,0.61375,0.6825,0.62125,0.70625,0.54125,0.87375,0.8075,0.83875,0.75875,0.77375,0.7,0.4911080420694784,0.506852225645384,0.6399766280675661,0.5077382648357932,0.6321479390668692,0.32493592062296167,0.7218391397062578,0.4158329008336583
0.62375,0.61375,0.6825,0.62125,0.70625,0.54125,0.87375,0.8075,0.83875,0.75875,0.77375,0.7,0.4900775523212578,0.506193562094975,0.6421969616487836,0.507624466825138,0.671493600833758,0.23540363978275022,0.7261852685163087,0.31098595944860036
0.62575,0.6154999999999999,0.68425,0.6225,0.70875,0.54225,0.87725,0.80925,0.84125,0.76375,0.7767499999999999,0.7045,0.489631360883884,0.5006905343673643,0.6445447784978222,0.5041536274167248,0.7066856352673515,0.2120946966505824,0.7483658190962558,0.2906412797798567
0.62775,0.61725,0.6859999999999999,0.62375,0.71125,0.54325,0.88075,0.8109999999999999,0.84375,0.76875,0.7797499999999999,0.7090000000000001,0.4856687559757782,0.5011792202273452,0.643184956974397,0.5038691323900868,0.7409672865056186,0.2120946966505824,0.7483658190962558,0.2906412797798567
0.62975,0.619,0.6877500000000001,0.625,0.71375,0.54425,0.88425,0.8127500000000001,0.84625,0.77375,0.7827500000000001,0.7134999999999999,0.4855200254966536,0.5040157229363647,0.6391267396154254,0.5058321479904595,0.7633001449564984,0.1751979835505751,0.7607597567335825,0.2536776728548698
0.6317499999999999,0.62075,0.6895,0.62625,0.71625,0.54525,0.88775,0.8145,0.84875,0.77875,0.7857500000000001,0.718,0.48431955805800486,0.5020078614681823,0.6342186338043132,0.5052347083510901,0.7799146542896793,0.144347746715767,0.7687325737935904,0.22225247781608687
0.63375,0.6225,0.69125,0.6275,0.71875,0.54625,0.89125,0.81625,0.85125,0.78375,0.78875,0.7225,0.4837246361415064,0.5087219802400935,0.6306703495166259,0.5095874821474122,0.7924324321245699,0.144347746715767,0.7687325737935904,0.22225247781608687
0.63375,0.6225,0.69125,0.6275,0.71875,0.54625,0.89125,0.81625,0.85125,0.78375,0.78875,0.7225,0.4799001381068735,0.5112503983852119,0.6335387230426006,0.5207965858354218,0.7981507812422688,0.13610220379949106,0.7793782975346077,0.20506008487823316
0.63375,0.6225,0.69125,0.6275,0.71875,0.54625,0.89125,0.81625,0.85125,0.78375,0.78875,0.7225,0.4784871985551896,0.5130776585573144,0.6280038244980346,0.5477098144932719,0.7923755309500742,0.11127445690893852,0.7917825484681676,0.16926900914543294
0.63375,0.6225,0.69125,0.6275,0.71875,0.54625,0.89125,0.81625,0.85125,0.78375,0.78875,0.7225,0.4750770211409753,0.5148836715181132,0.621395941782641,0.5813940256472121,0.7764438107932183,0.11127445690893852,0.7917825484681676,0.16926900914543294
0.63475,0.62275,0.6915,0.62725,0.71875,0.54875,0.89325,0.8175,0.851,0.7855,0.789,0.725,0.4719430574737066,0.5135132263890364,0.6142568787846595,0.6162446659376007,0.7513513503892809,0.10302891399266258,0.7935513669199856,0.1544433167063876
0.63575,0.623,0.69175,0.627,0.71875,0.55125,0.8952500000000001,0.81875,0.85075,0.7872499999999999,0.78925,0.7275,0.4687347285668756,0.5075215128014449,0.610368639116116,0.6483072550225565,0.7250355627891023,0.08502860399117254,0.8299284231898917,0.10700041710551284
0.6367499999999999,0.6232500000000001,0.6920000000000001,0.6267499999999999,0.71875,0.55375,0.89725,0.82,0.8504999999999999,0.789,0.7895,0.73,0.4686072452990545,0.5053011792202273,0.5980027621374695,0.6717780942474247,0.7021052651438107,0.09348038818550537,0.7943757805283843,0.0245497145026939
0.63775,0.6235,0.6922499999999999,0.6265,0.71875,0.55625,0.89925,0.82125,0.8502500000000001,0.7907500000000001,0.78975,0.7325,0.46816105386168066,0.500084988845214,0.587697864655264,0.6745945955951478,0.6801991477033462,0.09273297479836895,0.8023654778980387,0.02078520906885476
0.63875,0.62375,0.6925,0.62625,0.71875,0.55875,0.90125,0.8225,0.85,0.7925,0.79,0.735,0.4725698502071603,0.493540847763731,0.5879740784022097,0.6514367003711943,0.6433570415034354,0.09048113637384952,0.7943757805283843,0.017821375145628638
0.63875,0.62375,0.6925,0.62625,0.71875,0.55875,0.90125,0.8225,0.85,0.7925,0.79,0.735,0.4758206735365983,0.4894082651651971,0.5880165728248168,0.6110099576699402,0.5932290192003109,0.08371603217401287,0.7961417892680875,0.005151938380132459
0.63875,0.62375,0.6925,0.62625,0.71875,0.55875,0.90125,0.8225,0.85,0.7925,0.79,0.735,0.4753426112822692,0.4892170402634654,0.5817167746733242,0.5566145083542742,0.5335988629518571,0.08371603217401287,0.7961417892680875,0.005151938380132459
0.63925,0.62425,0.6927500000000001,0.6265,0.7197499999999999,0.5595,0.90225,0.8225,0.8495,0.7935,0.79,0.7354999999999999,0.47456708806969083,0.4906724742377563,0.5761287581004993,0.5070270258508959,0.4798293016380205,0.08372563043712312,0.7970355752195248,0.005151566969395176
0.63975,0.62475,0.693,0.6267499999999999,0.72075,0.56025,0.90325,0.8225,0.8490000000000001,0.7945,0.79,0.736,0.47321789015191756,0.49245723998725166,0.5741846382662276,0.46691322759551407,0.4323755321959553,0.085987057787921,0.7952573800421786,0.005737753156122142
0.6402500000000001,0.62525,0.69325,0.627,0.72175,0.561,0.90425,0.8225,0.8484999999999999,0.7955,0.79,0.7365,0.46828853712950175,0.4965898225857856,0.5662063104217572,0.4446088179520518,0.4046941662431264,0.085987057787921,0.7952573800421786,0.005737753156122142
0.64075,0.62575,0.6934999999999999,0.62725,0.72275,0.56175,0.9052500000000001,0.8225,0.848,0.7965000000000001,0.79,0.737,0.465335174758313,0.501317327100818,0.5592797195368108,0.4379800834142385,0.3966429570727003,0.08598225865636587,0.8050196421464706,0.00753349030626728
0.64125,0.62625,0.69375,0.6275,0.72375,0.5625,0.90625,0.8225,0.8475,0.7975,0.79,0.7375,0.46615319239349834,0.5024646765112079,0.559184107085945,0.4456898997763323,0.39735419505644304,0.08672967204350229,0.7988081509726414,0.004949061830233573
0.64125,0.62625,0.69375,0.6275,0.72375,0.5625,0.90625,0.8225,0.8475,0.7975,0.79,0.7375,0.4678423456921279,0.5024009348772973,0.560894507595878,0.4516927449774435,0.39476529128738186,0.08447784295581462,0.8014707553758966,0.003561383777864458
0.64125,0.62625,0.69375,0.6275,0.72375,0.5625,0.90625,0.8225,0.8475,0.7975,0.79,0.7375,0.46983958355465844,0.5026771486242431,0.5642303197705301,0.45504978612491287,0.38941678378543276,0.08447784295581462,0.8014707553758966,0.003561383777864458
0.64125,0.6265,0.6940000000000001,0.62775,0.72375,0.5625,0.9059999999999999,0.8225,0.8484999999999999,0.79825,0.7905,0.738,0.47098693296504834,0.5039944757250611,0.5671411877191119,0.4582645796756338,0.3841251756781492,0.08523964440078464,0.8014735650880114,0.0055420709697639355
0.64125,0.6267499999999999,0.6942499999999999,0.628,0.72375,0.5625,0.90575,0.8225,0.8495,0.799,0.7909999999999999,0.7384999999999999,0.4720386699245724,0.5044619143737384,0.5703176458089876,0.46403982907791336,0.3771550469971308,0.08445385663487083,0.7970365117902297,0.006136535739254549
0.64125,0.627,0.6945,0.62825,0.72375,0.5625,0.9055,0.8225,0.8504999999999999,0.79975,0.7915000000000001,0.7390000000000001,0.4730479124614894,0.504568150430256,0.5730054180388824,0.46944523419469764,0.3709246051072729,0.08824368600716366,0.7970318289367051,0.004754606424795488
0.64125,0.62725,0.69475,0.6285000000000001,0.72375,0.5625,0.9052500000000001,0.8225,0.8515,0.8005,0.792,0.7395,0.4732603845745246,0.5044194199511314,0.575395729310528,0.4745945942602751,0.36312943965318084,0.08824368600716366,0.7970318289367051,0.004754606424795488
0.64125,0.6275,0.695,0.62875,0.72375,0.5625,0.905,0.8225,0.8525,0.80125,0.7925,0.74,0.4723892489110804,0.504217571443748,0.576755550833953,0.4787197721187164,0.3570981465345672,0.08975291017610183,0.8041371060619715,0.006140611253035033
0.64125,0.6275,0.695,0.62875,0.72375,0.5625,0.905,0.8225,0.8525,0.80125,0.7925,0.74,0.4710081801763519,0.5038776160628917,0.5777754169765218,0.4823328589848289,0.3528876215864368,0.08899589852585522,0.7952555069007686,0.003962812506182365
0.64125,0.6275,0.695,0.62875,0.72375,0.5625,0.905,0.8225,0.8525,0.80125,0.7925,0.74,0.4692127908212047,0.5039413576968023,0.5780941251460746,0.4854338547473734,0.3529729697885199,0.08598225865636587,0.8067987738945218,0.004549468896401639
0.64125,0.6275,0.695,0.62875,0.72375,0.5625,0.905,0.8225,0.8525,0.80125,0.7925,0.74,0.46686497397216614,0.5043875491341762,0.5786677998512695,0.4898150781575987,0.3562162139264886,0.08597746886164252,0.8050224518585855,0.005349066192121292
0.64125,0.6275,0.695,0.62875,0.72375,0.5625,0.905,0.8225,0.8525,0.80125,0.7925,0.74,0.464676511207904,0.5052374375863168,0.5788484011473494,0.49465149355482513,0.3660881921573131,0.08597746886164252,0.8050224518585855,0.005349066192121292
0.64125,0.62775,0.695,0.629,0.72375,0.56275,0.9065000000000001,0.82375,0.85275,0.8015000000000001,0.7927500000000001,0.74075,0.46223308190799955,0.5060873260384574,0.5775204504408796,0.5034992886885983,0.3850071109559732,0.08900069765741035,0.8005825888486889,0.006136947167310335
0.64125,0.628,0.695,0.62925,0.72375,0.563,0.9079999999999999,0.825,0.853,0.80175,0.7929999999999999,0.7415,0.4592797195368108,0.5069265908849464,0.5765218315096143,0.5152489333721776,0.4142816482236795,0.09050032356323827,0.8050224518585855,0.003962812506182365
0.64125,0.62825,0.695,0.6295000000000001,0.72375,0.56325,0.9095,0.82625,0.8532500000000001,0.802,0.79325,0.74225,0.46958461701901627,0.5014660575799427,0.587081695527462,0.5271977242684951,0.4675106679579395,0.09050032356323827,0.8050224518585855,0.003962812506182365
0.64125,0.6285000000000001,0.695,0.62975,0.72375,0.5635,0.9109999999999999,0.8275,0.8534999999999999,0.8022499999999999,0.7935,0.743,0.4678423456921279,0.4813130776585573,0.6318814405609263,0.43504978438957836,0.46532005639187607,0.08522525634295104,0.7996944333399603,0.00494600300645111
0.64125,0.62875,0.695,0.63,0.72375,0.56375,0.9125,0.82875,0.85375,0.8025,0.79375,0.74375,0.47255922660150856,0.49385955593328373,0.6362158716668438,0.38788050991853146,0.4460312950875509,0.08901028658368874,0.8014754382294212,0.003762016856845215
0.64125,0.62875,0.695,0.63,0.72375,0.56375,0.9125,0.82875,0.85375,0.8025,0.79375,0.74375,0.47665993838308723,0.5048231169658982,0.6445872729204292,0.36568989817448505,0.4005120899355545,0.08901028658368874,0.8014754382294212,0.003762016856845215
0.64125,0.62875,0.695,0.63,0.72375,0.56375,0.9125,0.82875,0.85375,0.8025,0.79375,0.74375,0.4868585998087751,0.49703601402315944,0.6603527037076384,0.3796586043439393,0.33800853044182577,0.08748668369374892,0.8014726285173064,0.0057424989599874085
0.64125,0.62875,0.6955,0.63,0.7240000000000001,0.56275,0.9135,0.8275,0.85425,0.8035,0.794,0.7447499999999999,0.48427706363539785,0.4953256135132264,0.6646127695739934,0.39251778032665297,0.24967282269622504,0.08748668369374892,0.8014726285173064,0.0057424989599874085
0.64125,0.62875,0.696,0.63,0.72425,0.56175,0.9145,0.82625,0.8547499999999999,0.8045,0.79425,0.74575,0.4927759481568044,0.5115584829491129,0.6335599702539042,0.47240398491899954,0.2275675564845162,0.1650027794347801,0.6381430936576546,0.04832154985874012
0.64125,0.62875,0.6965,0.63,0.7245,0.5607500000000001,0.9155,0.825,0.8552500000000001,0.8055,0.7945,0.74675,0.49548496759800276,0.514586210559864,0.6671624349304154,0.5162162180200983,0.2209103718044126,0.17308524524649982,0.8247016314367516,0.22544044373803876
0.64125,0.62875,0.6970000000000001,0.63,0.7247499999999999,0.55975,0.9165000000000001,0.82375,0.85575,0.8065000000000001,0.79475,0.74775,0.4975884415170509,0.4964517157123128,0.6609263784128333,0.5322901868582867,0.267396859546401,0.16093475915843058,0.8140577808371441,0.25070456241700007
0.64125,0.62875,0.6975,0.63,0.725,0.55875,0.9175,0.8225,0.85625,0.8075,0.795,0.74875,0.4942738765537023,0.5043556783172208,0.651450122171465,0.5071123764724358,0.32338548301354886,0.16093475915843058,0.8140577808371441,0.25070456241700007
0.64125,0.62875,0.6975,0.63,0.725,0.55875,0.9175,0.8225,0.85625,0.8075,0.795,0.74875,0.4918410708594497,0.5098799532561351,0.6434292999043876,0.4833854907224388,0.381621616996468,0.13292548682544544,0.8629253076378586,0.3073107626653125
0.63925,0.6265,0.69575,0.62925,0.7234999999999999,0.5565,0.9122499999999999,0.82,0.85425,0.80175,0.7925,0.74575,0.4903643896738553,0.5124402422182088,0.6352278763412302,0.500312944501492,0.4289900406837168,0.13292548682544544,0.8629253076378586,0.3073107626653125
0.63725,0.62425,0.6940000000000001,0.6285000000000001,0.722,0.55425,0.907,0.8175,0.85225,0.7959999999999999,0.79,0.74275,0.48863274195261874,0.49577180495060025,0.6030702220333581,0.5066856330981834,0.47331436611201694,0.12309398965634019,0.8762514526624827,0.3205177545712346
0.63525,0.622,0.6922499999999999,0.62775,0.7204999999999999,0.552,0.9017499999999999,0.815,0.8502500000000001,0.79025,0.7875,0.7397499999999999,0.488707107192181,0.5017635185381919,0.6079039626049081,0.509445234856572,0.4806258887137615,0.17204525289747336,0.8496469717931017,0.3501561513283912
0.63325,0.61975,0.6905,0.627,0.7190000000000001,0.54975,0.8965000000000001,0.8125,0.8482500000000001,0.7845,0.785,0.73675,0.48910018060129606,0.5004143206204186,0.6083289068309784,0.5128022762265202,0.48412517745797945,0.20899951822881496,0.8381177643784015,0.3592647382971166
0.63125,0.6175,0.68875,0.62625,0.7175,0.5475,0.89125,0.81,0.84625,0.77875,0.7825,0.73375,0.48863274195261874,0.5014129395516839,0.607425900350579,0.5138549078250808,0.48520625883730234,0.20899951822881496,0.8381177643784015,0.3592647382971166
0.63075,0.617,0.68825,0.626,0.7165,0.547,0.889,0.8085,0.8452500000000001,0.774,0.78125,0.7252500000000001,0.48887708488260917,0.5016360352703708,0.607691490491873,0.5098150783912014,0.48318634434284147,0.33943897087721703,0.7990968571562966,0.3897364444397424
0.63025,0.6164999999999999,0.6877500000000001,0.62575,0.7155,0.5465,0.8867499999999999,0.807,0.84425,0.76925,0.78,0.71675,0.4889408265165197,0.5012004674386487,0.6077871029427387,0.505661451085716,0.48167852061823047,0.3801398920705191,0.7991137264474643,0.4027912592372164
0.62975,0.616,0.6872499999999999,0.6255,0.7145,0.546,0.8845000000000001,0.8055,0.84325,0.7645000000000001,0.77875,0.70825,0.4892701582917242,0.5006799107617125,0.6083926484648889,0.5032147938566292,0.481479374071774,0.3801398920705191,0.7991137264474643,0.4027912592372164
0.62925,0.6154999999999999,0.68675,0.62525,0.7134999999999999,0.5455,0.88225,0.804,0.8422499999999999,0.7597499999999999,0.7775,0.69975,0.4895463720386699,0.5001806012960799,0.6089025815361734,0.5022190612355864,0.48196301558924876,0.41708935827030563,0.78936458735152,0.4168236270952162
0.62875,0.615,0.68625,0.625,0.7125,0.545,0.88,0.8025,0.84125,0.755,0.77625,0.69125,0.48980133857431213,0.4997131626474025,0.6092850313396366,0.5020768137500772,0.48261735395584726,0.4803901835874164,0.7751990215502605,0.4507898430743366
0.62875,0.615,0.68625,0.625,0.7125,0.545,0.88,0.8025,0.84125,0.755,0.77625,0.69125,0.48989695102517794,0.4993307128439392,0.6092212897057261,0.5029302988856109,0.48378378331477445,0.5168983911154219,0.7389447662274896,0.6532925649397918
0.62875,0.615,0.68625,0.625,0.7125,0.545,0.88,0.8025,0.84125,0.755,0.77625,0.69125,0.48980133857431213,0.49932008923828747,0.6093487729735472,0.504096728439207,0.485092460492929,0.5168983911154219,0.7389447662274896,0.6532925649397918
0.62875,0.615,0.68625,0.625,0.7125,0.545,0.88,0.8025,0.84125,0.755,0.77625,0.69125,0.4896419844895358,0.49945819611176034,0.6092000424944226,0.5054054055617418,0.4861450919524404,0.5168983911154219,0.7389447662274896,0.6532925649397918
0.628,0.61425,0.685,0.62425,0.71125,0.5445,0.8795000000000001,0.8025,0.8377500000000001,0.7509999999999999,0.77325,0.6827500000000001,0.489588866461277,0.4997981514926166,0.6089769467757357,0.5065149360822006,0.48674253159180975,0.589057871747056,0.6911134943101512,0.7786263487680881
0.62725,0.6135,0.68375,0.6235,0.71,0.544,0.879,0.8025,0.8342499999999999,0.747,0.7702500000000001,0.67425,0.48952512482736643,0.49993625836608946,0.6087644746627006,0.5075675676529513,0.48688477918855827,0.6319434902072648,0.7027148727615258,0.8376137920588583
0.6265,0.61275,0.6825,0.62275,0.70875,0.5435,0.8785,0.8025,0.83075,0.743,0.76725,0.6657500000000001,0.48942951237650056,0.5003293317752046,0.6087963454796558,0.5080227596955721,0.4863726881962296,0.6319434902072648,0.7027148727615258,0.8376137920588583
0.62575,0.612,0.68125,0.622,0.7075,0.5429999999999999,0.878,0.8025,0.8272499999999999,0.7390000000000001,0.76425,0.6572499999999999,0.48961011367258045,0.500573674705195,0.6087963454796558,0.508449502263339,0.48600284480064937,0.6364519568510271,0.7160522676530879,0.854789210150423
0.625,0.61125,0.68,0.62125,0.70625,0.5425,0.8775,0.8025,0.82375,0.735,0.76125,0.64875,0.48989695102517794,0.5007117815786678,0.608785721874004,0.5083926033136311,0.48631578946900045,0.6530101931780234,0.7596048989435251,0.8940151749173252
0.625,0.61125,0.67975,0.62075,0.706,0.5429999999999999,0.87625,0.8027500000000001,0.82325,0.733,0.7602500000000001,0.644,0.4903431424625518,0.5008180176351854,0.6086476150005312,0.5071977242573712,0.48799431004273514,0.6582852603983107,0.7853624774891099,0.9058466490335356
0.625,0.61125,0.6795,0.62025,0.70575,0.5435,0.875,0.8029999999999999,0.8227500000000001,0.731,0.75925,0.63925,0.4906193562094975,0.5010517369595241,0.6086263677892276,0.5057752491241811,0.49055476522685754,0.6582852603983107,0.7853624774891099,0.9058466490335356
0.625,0.61125,0.67925,0.61975,0.7055,0.544,0.87375,0.80325,0.8222499999999999,0.7290000000000001,0.75825,0.6345000000000001,0.49086369913948796,0.5011473494103899,0.6087219802400935,0.5040967284113972,0.49348506402903886,0.6703350207447131,0.8484292756179826,0.9302830294880868
0.625,0.61125,0.679,0.61925,0.70525,0.5445,0.8725,0.8035,0.82175,0.727,0.75725,0.62975,0.4909805588016573,0.5011367258047381,0.6087219802400935,0.5020483642474134,0.49621621617352435,0.6703350207447131,0.8484292756179826,0.9302830294880868
0.625,0.61125,0.67875,0.61875,0.705,0.545,0.87125,0.80375,0.82125,0.725,0.75625,0.625,0.49093806437905024,0.5011048549877829,0.60870073302879,0.5003129445293019,0.4982076813043707,0.6726156352848996,0.8617563572133117,0.9381840776141895
0.625,0.61125,0.67875,0.61875,0.705,0.545,0.87125,0.80375,0.82125,0.725,0.75625,0.625,0.49056623818123873,0.5009879953256136,0.6088813343248699,0.49931721190825895,0.49908961591475837,0.6642789648900671,0.8670937524574651,0.9482389578649901
0.625,0.61125,0.67875,0.61875,0.705,0.545,0.87125,0.80375,0.82125,0.725,0.75625,0.625,0.4903537660682035,0.5010198661425688,0.6088175926909594,0.49860597431385406,0.4995448079573792,0.6612557267574676,0.8573258709289433,0.9494132948386739
0.625,0.61125,0.67875,0.61875,0.705,0.545,0.87125,0.80375,0.82125,0.725,0.75625,0.625,0.490290024434293,0.5008711356634442,0.60870073302879,0.49806543376324186,0.4999146514920086,0.6612557267574676,0.8573258709289433,0.9494132948386739
0.62525,0.6114999999999999,0.67875,0.61875,0.705,0.5447500000000001,0.8702500000000001,0.804,0.8220000000000001,0.7247499999999999,0.7555,0.6245,0.490247530011686,0.5006799107617125,0.6086369913948795,0.4978093882392676,0.4999146514920086,0.6567040959402046,0.8413474347972972,0.9519894509846502
0.6255,0.61175,0.67875,0.61875,0.705,0.5445,0.86925,0.80425,0.8227500000000001,0.7245,0.7547499999999999,0.624,0.49014129395516837,0.5005418038882397,0.6085838733666207,0.49746799417949217,0.4999431009946724,0.6122325232271665,0.747176286153158,0.9012806604878428
0.62575,0.612,0.67875,0.61875,0.705,0.54425,0.8682500000000001,0.8045,0.8234999999999999,0.72425,0.754,0.6235,0.4902156591947307,0.5004780622543291,0.6084988845214065,0.49752489324043947,0.499857752486681,0.6122325232271665,0.747176286153158,0.9012806604878428
0.626,0.61225,0.67875,0.61875,0.705,0.544,0.86725,0.80475,0.8242499999999999,0.7240000000000001,0.75325,0.623,0.4902050355890789,0.500350578986508,0.6083714012535855,0.49761024177624075,0.499573257460043,0.600939765194179,0.7374018486297018,0.8915984802823044
0.62625,0.6125,0.67875,0.61875,0.705,0.54375,0.86625,0.805,0.825,0.72375,0.7525,0.6225,0.4902581536173377,0.5002974609582492,0.6082439179857644,0.49775248928955973,0.49897581790410317,0.5957030723526691,0.7391556709317619,0.8728480805780723
0.62625,0.6125,0.67875,0.61875,0.705,0.54375,0.86625,0.805,0.825,0.72375,0.7525,0.6225,0.49019441198342717,0.5004143206204186,0.6079783278444704,0.49800853481353397,0.49829302984017193,0.5957030723526691,0.7391556709317619,0.8728480805780723
0.62625,0.6125,0.67875,0.61875,0.705,0.54375,0.86625,0.805,0.825,0.72375,0.7525,0.6225,0.49052374375863167,0.5005842983108467,0.6078720917879529,0.498264580365318,0.4978378377697413,0.5904327949271051,0.740923552812875,0.8665312305533028
0.626,0.6125,0.6785,0.61875,0.70525,0.544,0.86725,0.80475,0.82525,0.72375,0.7525,0.622,0.49070434505471155,0.5004461914373739,0.6075427600127483,0.49843527735349097,0.4976955902564223,0.5851817046909299,0.7382515716840916,0.8536917602015213
0.62575,0.6125,0.67825,0.61875,0.7055,0.54425,0.8682500000000001,0.8045,0.8255,0.72375,0.7525,0.6214999999999999,0.4910018060129608,0.5004886858599809,0.6075321364070966,0.49869132287746515,0.49837837832035353,0.5851817046909299,0.7382515716840916,0.8536917602015213
0.6255,0.6125,0.6779999999999999,0.61875,0.70575,0.5445,0.86925,0.80425,0.82575,0.72375,0.7525,0.621,0.4908743227451397,0.500573674705195,0.6076489960692659,0.49866287337480136,0.49945945942157793,0.5821728639529956,0.7497873461122052,0.8519085809861363
0.62525,0.6125,0.6777500000000001,0.61875,0.706,0.5447500000000001,0.8702500000000001,0.804,0.826,0.72375,0.7525,0.6204999999999999,0.49088494635079144,0.5004461914373739,0.6079145862105598,0.49869132287746515,0.5007965860745864,0.5776404109882897,0.7462375117524473,0.8489412280399651
0.625,0.6125,0.6775,0.61875,0.70625,0.545,0.87125,0.80375,0.82625,0.72375,0.7525,0.62,0.49065122702645275,0.5004568150430256,0.6081695527462021,0.49886201989344797,0.5019630157116121,0.5738793577316639,0.7639932064907348,0.8499019700750994
0.625,0.6125,0.6775,0.61875,0.70625,0.545,0.87125,0.80375,0.82625,0.72375,0.7525,0.62,0.4904175077021141,0.5006267927334538,0.6085838733666207,0.49886201989344797,0.5027311523113446,0.567090276547715,0.7764236924225117,0.8504880212033764
0.625,0.6125,0.6775,0.61875,0.70625,0.545,0.87125,0.80375,0.82625,0.72375,0.7525,0.62,0.49017316477212364,0.5006055455221502,0.6088388399022628,0.4987482218827928,0.5028733998524735,0.5685755143957094,0.7924058858554565,0.8605613231766379
0.625,0.6125,0.6775,0.61875,0.70625,0.545,0.87125,0.80375,0.82625,0.72375,0.7525,0.62,0.49004568150430255,0.5005630510995431,0.6089025815361734,0.49866287337480136,0.5027880513722919,0.6321017681802659,0.8269775643606154,0.8116416644713418
0.625,0.6125,0.6775,0.61875,0.70625,0.545,0.87125,0.80375,0.82625,0.72375,0.7525,0.62,0.4900563051099543,0.5006055455221502,0.6090300648039945,0.49854907536414617,0.5027596018418182,0.6336397591280394,0.8243037100904221,0.7978366587599951
0.6245,0.61225,0.677,0.6182500000000001,0.70525,0.54425,0.8704999999999999,0.80375,0.825,0.7232500000000001,0.75275,0.62025,0.49004568150430255,0.5004143206204186,0.6089238287474769,0.49843527735349097,0.502930298857801,0.6314310942138525,0.8251778170385768,0.781663703259178
0.624,0.612,0.6765000000000001,0.61775,0.7042499999999999,0.5435,0.8697499999999999,0.80375,0.82375,0.72275,0.753,0.6204999999999999,0.49014129395516837,0.5003718261978115,0.6088919579305216,0.4984068278508271,0.5034423898501298,0.6314310942138525,0.8251778170385768,0.781663703259178
0.6232500000000001,0.6114999999999999,0.6759999999999999,0.617,0.70325,0.5429999999999999,0.8690000000000001,0.80425,0.8234999999999999,0.723,0.7547499999999999,0.62525,0.4898863274195262,0.5001699776904281,0.6090831828322533,0.4982076813321806,0.509615932011604,0.604361088488227,0.7976017377198971,0.7319919890830755
0.6225,0.611,0.6755,0.61625,0.7022499999999999,0.5425,0.8682500000000001,0.80475,0.82325,0.7232500000000001,0.7565000000000001,0.63,0.4896951025177945,0.5001806012960799,0.6091363008605121,0.4982076813321806,0.5165291609642387,0.5945823444189009,0.7913649371000768,0.7110873295690543
0.62175,0.6104999999999999,0.675,0.6154999999999999,0.70125,0.542,0.8675,0.80525,0.823,0.7234999999999999,0.75825,0.63475,0.4893976415595453,0.5001381068734728,0.6095399978752789,0.49806543381886154,0.5235277383970549,0.5945823444189009,0.7913649371000768,0.7110873295690543
0.6214999999999999,0.61025,0.675,0.61525,0.70125,0.54225,0.8675,0.8057500000000001,0.8240000000000001,0.72425,0.7597499999999999,0.63925,0.48928078189737595,0.49988314033783066,0.6100074365239563,0.49795163580820634,0.5312660027878906,0.43419835563265996,0.7343511734002374,0.5271946416610449
0.62125,0.61,0.675,0.615,0.70125,0.5425,0.8675,0.80625,0.825,0.725,0.76125,0.64375,0.489323276319983,0.4991394879422076,0.6112822692021672,0.49832147934283577,0.5397439548598018,0.41161763869823986,0.7272233965410946,0.5033298073073574
0.62125,0.61,0.675,0.615,0.70125,0.5425,0.8675,0.80625,0.825,0.725,0.76125,0.64375,0.489323276319983,0.49912886433655584,0.6123552533729948,0.5015078236968011,0.5458036990106209,0.35515865700168875,0.7022986827772106,0.43583432945192874
0.6225,0.61175,0.677,0.61675,0.70325,0.5425,0.8715,0.8065000000000001,0.82875,0.7340000000000001,0.7647499999999999,0.6577500000000001,0.4904493785190694,0.5024115584829492,0.6145224689259534,0.5072546231514593,0.5539687056355052,0.33104953804577364,0.6942883698335689,0.4174777289241352
0.62375,0.6135,0.679,0.6185,0.70525,0.5425,0.8755,0.80675,0.8325,0.743,0.76825,0.67175,0.4930096674811431,0.5038351216402848,0.6225432911930309,0.5095021338618996,0.5739687067034033,0.33104953804577364,0.6942883698335689,0.4174777289241352
0.625,0.61525,0.6809999999999999,0.62025,0.7072499999999999,0.5425,0.8795000000000001,0.807,0.83625,0.752,0.7717499999999999,0.6857500000000001,0.4946563263571656,0.5038882396685435,0.6304153829809838,0.5124608822501743,0.5998862056602448,0.27002452813729433,0.6782593148099408,0.36596176035083583
0.62625,0.617,0.6829999999999999,0.622,0.7092499999999999,0.5425,0.8835,0.8072499999999999,0.84,0.7609999999999999,0.7752500000000001,0.69975,0.49325401041113354,0.5057792414745564,0.6349941570168915,0.5174395452163394,0.6341963057059294,0.2594839826229982,0.672028144632829,0.3503719697291996
0.6275,0.61875,0.685,0.62375,0.71125,0.5425,0.8875,0.8075,0.84375,0.77,0.77875,0.71375,0.4926803357059386,0.5054286624880484,0.6375863167959206,0.5174395452163394,0.6683926060723681,0.2594839826229982,0.672028144632829,0.3503719697291996
0.6275,0.61875,0.685,0.62375,0.71125,0.5425,0.8875,0.8075,0.84375,0.77,0.77875,0.71375,0.4907787102942739,0.5024221820886009,0.6408690109423139,0.5136273119150099,0.7031578994955463,0.23922705373909722,0.6897519629117119,0.3073328147088856
0.629,0.6195,0.6857500000000001,0.6245,0.7125,0.5435,0.88825,0.8079999999999999,0.84425,0.7735,0.7805,0.7170000000000001,0.487389780091363,0.5014341867629873,0.6379262721767768,0.5133143673578981,0.7260312995260028,0.23922705373909722,0.6897519629117119,0.3073328147088856
0.6305,0.62025,0.6865000000000001,0.62525,0.71375,0.5445,0.889,0.8085,0.8447499999999999,0.777,0.7822499999999999,0.7202500000000001,0.48474450228407523,0.5027408902581536,0.6335493466482525,0.5146799434857606,0.748221910380134,0.22268320546993436,0.6959550249491968,0.2960767045958315
0.632,0.621,0.6872499999999999,0.626,0.715,0.5455,0.8897499999999999,0.809,0.8452500000000001,0.7805,0.784,0.7234999999999999,0.4848719855518963,0.5020291086794858,0.6309359396579199,0.5140825038463912,0.7629872009555838,0.19857887630874252,0.6986045063441041,0.2743287551270001
0.6335000000000001,0.62175,0.688,0.6267499999999999,0.71625,0.5465,0.8905,0.8095,0.84575,0.784,0.7857500000000001,0.72675,0.4832040794645703,0.5032720705407415,0.6304153829809838,0.5157325751677508,0.7768421118953677,0.18501989179340192,0.707473919067664,0.2654404072222356
0.635,0.6225,0.68875,0.6275,0.7175,0.5475,0.89125,0.81,0.84625,0.7875,0.7875,0.73,0.4813237012642091,0.5044619143737384,0.6267183682141719,0.520113798411117,0.7868847829706976,0.17977839982033694,0.7127925608607609,0.2537788053724951
0.635,0.6225,0.68875,0.6275,0.7175,0.5475,0.89125,0.81,0.84625,0.7875,0.7875,0.73,0.4781366195686816,0.5067353659832147,0.6223839371082546,0.5286770991300688,0.7938264628442984,0.17977839982033694,0.7127925608607609,0.2537788053724951
0.635,0.6225,0.68875,0.6275,0.7175,0.5475,0.89125,0.81,0.84625,0.7875,0.7875,0.73,0.4757994263252948,0.5087113566344418,0.6208541378944014,0.5447795179158785,0.7851493630022974,0.12871439827512857,0.79176380603559,0.16183513319977053
0.635,0.6225,0.68875,0.6275,0.7175,0.5475,0.89125,0.81,0.84625,0.7875,0.7875,0.73,0.47462020609794964,0.5122383937108255,0.6134919791777329,0.570440967816895,0.7697297320579402,0.12494854588694768,0.7935363707702278,0.1452187295356748
0.635,0.6225,0.68875,0.6275,0.7175,0.5475,0.89125,0.81,0.84625,0.7875,0.7875,0.73,0.47464145330925317,0.5161797514076277,0.6104961223839371,0.6029871981968469,0.7423328577389477,0.12494854588694768,0.7935363707702278,0.1452187295356748
0.63575,0.6225,0.68975,0.62725,0.7175,0.54975,0.89325,0.8109999999999999,0.847,0.789,0.7877500000000001,0.73175,0.4719111866567513,0.518102624030596,0.6077446085201317,0.6407681386242894,0.7052916081072836,0.12278303580942963,0.795289256501583,0.10112825202927199
0.6365,0.6225,0.69075,0.627,0.7175,0.552,0.8952500000000001,0.812,0.84775,0.7905,0.7879999999999999,0.7334999999999999,0.4710612982046106,0.5162647402528419,0.6005311802825879,0.6765291643347924,0.6663157879561447,0.12354484659123144,0.7908465837795717,0.08669606488948253
0.63725,0.6225,0.69175,0.6267499999999999,0.7175,0.55425,0.89725,0.813,0.8484999999999999,0.792,0.78825,0.7352500000000001,0.4682566663125465,0.5073940295336237,0.5922447678742165,0.6882788101307655,0.6143385477852041,0.12354484659123144,0.7908465837795717,0.08669606488948253
0.638,0.6225,0.6927500000000001,0.6265,0.7175,0.5565,0.89925,0.8140000000000001,0.84925,0.7935,0.7885,0.737,0.46436842664400296,0.49759906512270263,0.5904600021247212,0.6900426824662439,0.5671408247292185,0.11528011648556678,0.7846191488668006,0.05623323133669173
0.63875,0.6225,0.69375,0.62625,0.7175,0.55875,0.90125,0.815,0.85,0.795,0.78875,0.73875,0.4677148624243068,0.48405396791671096,0.5891851694465101,0.6573257547922109,0.49931721260350515,0.11528011648556678,0.7846191488668006,0.05623323133669173
0.63875,0.6225,0.69375,0.62625,0.7175,0.55875,0.90125,0.815,0.85,0.795,0.78875,0.73875,0.46971210028683735,0.4730585360671412,0.5851694465101456,0.5918065494622314,0.4238691332076963,0.10851981141728517,0.7988184642688745,0.048504940475614336
0.63875,0.6225,0.69375,0.62625,0.7175,0.55875,0.90125,0.815,0.85,0.795,0.78875,0.73875,0.466652501859131,0.46994581961117604,0.58084563900988,0.5123186379627978,0.35209103718044127,0.10851981141728517,0.7988184642688745,0.048504940475614336
0.63875,0.6225,0.69375,0.62625,0.7175,0.55875,0.90125,0.815,0.85,0.795,0.78875,0.73875,0.4628704982471051,0.47600127483267823,0.5740571549984065,0.44930298819979636,0.31109530364723537,0.08522045721139591,0.8050196421464706,0.004959757709142568
0.639,0.6225,0.6940000000000001,0.6265,0.7184999999999999,0.5589999999999999,0.90075,0.81525,0.8497499999999999,0.79525,0.789,0.7382500000000001,0.4590778710294274,0.48334218633804316,0.5660682035482842,0.3957610226847914,0.281536271909088,0.08599185691947613,0.8023561011725104,0.005544349455835748
0.63925,0.6225,0.6942499999999999,0.6267499999999999,0.7195,0.55925,0.9002500000000001,0.8155,0.8495,0.7955,0.78925,0.73775,0.4494635079145862,0.49340274089025815,0.5537873154148518,0.3796301546466065,0.29206258694915943,0.08599185691947613,0.8023561011725104,0.005544349455835748
0.6395000000000001,0.6225,0.6945,0.627,0.7204999999999999,0.5595,0.8997499999999999,0.81575,0.84925,0.7957500000000001,0.7895,0.73725,0.4457983639647296,0.5011367258047381,0.5467332412620843,0.3925177794367378,0.32378378144595266,0.09051951075262693,0.7996925601985504,0.0063371650666116984
0.63975,0.6225,0.69475,0.62725,0.7215,0.55975,0.89925,0.816,0.8490000000000001,0.7959999999999999,0.78975,0.73675,0.4496228619993626,0.5032826941463933,0.5491766705619887,0.41564722496335865,0.35857752367654844,0.08598225865636587,0.7979218575868436,0.005546181498698092
0.64,0.6225,0.695,0.6275,0.7225,0.56,0.89875,0.81625,0.84875,0.79625,0.79,0.73625,0.45520025496653566,0.5028683735259747,0.5539466694996282,0.43630156373041895,0.38495021245122285,0.08598225865636587,0.7979218575868436,0.005546181498698092
0.64,0.6225,0.695,0.6275,0.7225,0.56,0.89875,0.81625,0.84875,0.79625,0.79,0.73625,0.4612663337936896,0.5018378837777542,0.5607351535111017,0.44674253145832243,0.39820767885710406,0.08749148282530404,0.8050224518585855,0.0037699965602613628
0.6402500000000001,0.623,0.695,0.6275,0.7225,0.5605,0.9002500000000001,0.8172499999999999,0.8490000000000001,0.7972499999999999,0.7905,0.73725,0.46625942845001594,0.5007542760012749,0.567884840114735,0.4538833565435069,0.39937410843851,0.08673927030661255,0.8014726285173064,0.004354390721444468
0.6405,0.6235,0.695,0.6275,0.7225,0.561,0.9017499999999999,0.81825,0.84925,0.79825,0.7909999999999999,0.7382500000000001,0.4703070222033358,0.5018485073834059,0.5739827897588441,0.45960170655112104,0.40352773577180523,0.08673927030661255,0.8014726285173064,0.004354390721444468
0.64075,0.624,0.695,0.6275,0.7225,0.5615,0.90325,0.8192499999999999,0.8495,0.79925,0.7915000000000001,0.73925,0.470870073302879,0.5036332731329013,0.5747901837883778,0.47092460855569407,0.41055476295757387,0.0844634455611493,0.8005825888486889,0.005342288258801197
0.6409999999999999,0.6245,0.695,0.6275,0.7225,0.562,0.9047499999999999,0.82025,0.8497499999999999,0.80025,0.792,0.7402500000000001,0.4710081801763519,0.5055773929671731,0.5757144374800808,0.4861166428113046,0.4261450907510549,0.08823889621244033,0.8014726285173064,0.004356446611182155
0.64125,0.6255,0.695,0.6275,0.72275,0.563,0.9075,0.8225,0.8502500000000001,0.80175,0.7929999999999999,0.742,0.4706682247954956,0.506852225645384,0.5758206735365983,0.5020483638580755,0.44341393911827065,0.08597266973008741,0.8032470774118328,0.004948631644059757
0.64125,0.626,0.695,0.6275,0.723,0.5635,0.90875,0.82375,0.8504999999999999,0.8022499999999999,0.7935,0.74275,0.4705832359502815,0.5080101986614257,0.5754594709444385,0.5146514934547097,0.47877667173586064,0.08825807406499726,0.7970337020781149,0.004350701624895711
0.64125,0.6265,0.695,0.6275,0.7232500000000001,0.564,0.91,0.825,0.85075,0.8027500000000001,0.794,0.7434999999999999,0.4704451290768087,0.5083395304366302,0.576054392860937,0.5258321479737735,0.5172403991148405,0.09126212500820821,0.8014707553758966,0.004156645142101366
0.64125,0.627,0.695,0.6275,0.7234999999999999,0.5645,0.91125,0.82625,0.851,0.80325,0.7945,0.74425,0.467045575268246,0.4561138850525869,0.6458514819929884,0.4327738226191228,0.4836699867502314,0.08372563043712312,0.7988081509726414,0.005543714180904638
0.64125,0.6275,0.695,0.6275,0.72375,0.565,0.9125,0.8275,0.85125,0.80375,0.795,0.745,0.46612132157654307,0.4772442366939339,0.6488367151811325,0.4136273071317159,0.4439829317300527,0.08372563043712312,0.7988081509726414,0.005543714180904638
0.64125,0.6275,0.695,0.6275,0.72375,0.565,0.9125,0.8275,0.85125,0.80375,0.795,0.745,0.4664719005630511,0.47935833421863383,0.6435355359609052,0.4110099529978856,0.38847795178268874,0.08371603217401287,0.8059106183857931,0.004748252424943201
0.64125,0.6275,0.695,0.6275,0.72375,0.565,0.9125,0.8275,0.85125,0.80375,0.795,0.745,0.47123127589503877,0.4732285137575693,0.6568469138425581,0.42014224354763463,0.31413939901395976,0.08371603217401287,0.8059106183857931,0.004748252424943201
0.64125,0.6275,0.695,0.6275,0.72375,0.565,0.9125,0.8275,0.85125,0.80375,0.795,0.745,0.4756400722405184,0.467661744396048,0.6714437480080739,0.4029871935247923,0.2386059678564073,0.08825328427027392,0.7943701611041548,0.003362205078302764
0.64125,0.6275,0.695,0.6275,0.72375,0.565,0.9125,0.8275,0.85125,0.80375,0.795,0.745,0.5096037395091895,0.5228726229682354,0.6429299904387549,0.48503556176569984,0.2528876180267762,0.08672967204350229,0.8085741593597532,0.0033665031884173627
0.64075,0.62725,0.69525,0.6275,0.7234999999999999,0.56325,0.9122499999999999,0.825,0.85175,0.80425,0.795,0.7452500000000001,0.5148093062785509,0.49525124827366407,0.649166046956337,0.49743954526083517,0.2859174897017239,0.10857736364861947,0.9932692079164818,0.0433312014106905
0.6402500000000001,0.627,0.6955,0.6275,0.7232500000000001,0.5615,0.912,0.8225,0.85225,0.80475,0.795,0.7454999999999999,0.5187400403697014,0.48664612769573995,0.6636885158822905,0.4933143674023939,0.33476528630385705,0.1258062739420293,0.6017116722129465,0.03724381069017143
0.63975,0.6267499999999999,0.69575,0.6275,0.723,0.55975,0.91175,0.82,0.85275,0.80525,0.795,0.74575,0.5170615106767237,0.4906193562094975,0.6590353766068203,0.4743954481587762,0.38950213154255825,0.13073120996909218,0.8842289635944939,0.28776698835838677
0.63925,0.6265,0.696,0.6275,0.72275,0.5579999999999999,0.9115000000000001,0.8175,0.8532500000000001,0.8057500000000001,0.795,0.746,0.515244874110273,0.4940826516519707,0.6507170933814936,0.48241820785434836,0.4352489333833015,0.1390007298694801,0.8638153473064761,0.29507768099339193
0.63875,0.62625,0.69625,0.6275,0.7225,0.55625,0.91125,0.815,0.85375,0.80625,0.795,0.74625,0.48887708488260917,0.48896207372782324,0.6176776798045257,0.49186344229377266,0.4616785211076838,0.1390007298694801,0.8638153473064761,0.29507768099339193
0.63875,0.62625,0.69625,0.6275,0.7225,0.55625,0.91125,0.815,0.85375,0.80625,0.795,0.74625,0.4888664612769574,0.49294592584723257,0.6160310209285031,0.4942532004897221,0.4692745380130103,0.17743063478570575,0.8407447460394325,0.3057663417785632
0.63725,0.62475,0.6945,0.6275,0.72125,0.555,0.90625,0.813,0.8515,0.7995,0.7925,0.74125,0.4885052586847976,0.4979177732922554,0.6135132263890364,0.4985775248946198,0.47590327166090846,0.17743063478570575,0.8407447460394325,0.3057663417785632
0.63575,0.6232500000000001,0.6927500000000001,0.6275,0.72,0.55375,0.90125,0.8109999999999999,0.84925,0.7927500000000001,0.79,0.73625,0.4890470625730373,0.49911824073090405,0.6111760331456496,0.5020483642752233,0.4793172117580857,0.28673144417418156,0.8141458845942812,0.3263484829647151
0.63425,0.62175,0.691,0.6275,0.71875,0.5525,0.89625,0.809,0.847,0.7859999999999999,0.7875,0.73125,0.48984383299691914,0.49966004461914376,0.6099968129183044,0.5041251779418708,0.4833854904443403,0.31689182919001924,0.8123789392838731,0.3364334337292822
0.63275,0.62025,0.6892499999999999,0.6275,0.7175,0.55125,0.89125,0.807,0.8447499999999999,0.77925,0.785,0.72625,0.4893763943482418,0.5002549665356422,0.6086476150005312,0.505775249151991,0.48440967242899774,0.31689182919001924,0.8123789392838731,0.3364334337292822
0.631,0.6182500000000001,0.6875,0.6267499999999999,0.7155,0.5495,0.8847499999999999,0.8045,0.841,0.76825,0.7805,0.715,0.4892170402634654,0.5009773717199617,0.6080739402953362,0.5063442392330768,0.4832432428475918,0.47582895450704327,0.8178156991705807,0.453155958319862
0.63075,0.61775,0.6875,0.626,0.71475,0.5489999999999999,0.88325,0.804,0.8395,0.764,0.7785,0.70875,0.48946138319345583,0.5005842983108467,0.6084776373101031,0.5050924611158696,0.4834423893940482,0.49824179520535206,0.8152187098090653,0.5425866141719484
0.6305,0.61725,0.6875,0.62525,0.7140000000000001,0.5485,0.8817499999999999,0.8035,0.838,0.7597499999999999,0.7765000000000001,0.7025,0.4896526080951875,0.5001168596621693,0.6085626261553171,0.5047510670839039,0.48458036972307905,0.508753564603981,0.8134601936350015,0.5646916181650514
0.63025,0.61675,0.6875,0.6245,0.71325,0.5479999999999999,0.8802500000000001,0.8029999999999999,0.8365,0.7555,0.7745000000000001,0.69625,0.4896844789121428,0.4998937639434824,0.6087113566344418,0.5048079660336119,0.48586059720390085,0.5259584885764471,0.8028491450470245,0.6255094498521597
0.63,0.61625,0.6875,0.62375,0.7125,0.5475,0.87875,0.8025,0.835,0.75125,0.7725,0.69,0.48952512482736643,0.49959630298523316,0.6088494635079146,0.5052916075510866,0.48728307228147116,0.5259584885764471,0.8028491450470245,0.6255094498521597
