C0,C1,C2,C3,C4,C5,C6,C7,C8,C9,C10,C11,Ax,Ay,Az,Gr,Gp,Fx_norm,Fy_norm,Fz_norm
0.635,0.625,0.68375,0.605,0.71,0.54,0.85875,0.8675,0.76625,0.71875,0.7325,0.7075,0.4974212646484375,0.5001983642578125,0.531158447265625,0.49981415661539424,0.49950054590387205,0.28817159020272354,0.17580171296370625,0.20932701373560364
0.635,0.625,0.68375,0.605,0.71,0.54,0.85875,0.8675,0.76625,0.71875,0.7325,0.7075,0.4974021911621094,0.5002174377441406,0.5311470031738281,0.49980834900962534,0.49956442956733027,0.28817159020272354,0.17580171296370625,0.20932701373560364
0.635,0.625,0.68375,0.605,0.71,0.54,0.85875,0.8675,0.76625,0.71875,0.7325,0.7075,0.49736328125,0.5001983642578125,0.53114013671875,0.49983971008077754,0.49959579063848253,0.28817159020272354,0.17580171296370625,0.20932701373560364
0.635,0.625,0.684,0.605,0.71,0.5397500000000001,0.8590000000000001,0.86775,0.76625,0.71875,0.73275,0.708,0.4973724365234375,0.50020751953125,0.5311279296875,0.49988849396923657,0.49965851278078693,0.28817159020272354,0.17580171296370625,0.20932701373560364
0.635,0.625,0.68425,0.605,0.71,0.5395,0.85925,0.868,0.76625,0.71875,0.733,0.7084999999999999,0.4972991943359375,0.50020751953125,0.5310791015625,0.4999094013500047,0.4996933584154005,0.28817159020272354,0.17580171296370625,0.20932701373560364
0.635,0.625,0.6845,0.605,0.71,0.53925,0.8595,0.8682500000000001,0.76625,0.71875,0.7332500000000001,0.7090000000000001,0.4972686767578125,0.5002471923828125,0.531060791015625,0.4999651543653864,0.49973517317693683,0.28817159020272354,0.17580171296370625,0.20932701373560364
0.635,0.625,0.68475,0.605,0.71,0.539,0.8597499999999999,0.8684999999999999,0.76625,0.71875,0.7334999999999999,0.7095,0.497271728515625,0.500238037109375,0.531072998046875,0.5,0.4996863892884778,0.28817159020272354,0.17580171296370625,0.20932701373560364
0.635,0.625,0.685,0.605,0.71,0.53875,0.86,0.86875,0.76625,0.71875,0.73375,0.71,0.4972991943359375,0.5002960205078125,0.5310699462890625,0.4999581852384637,0.49966548190770965,0.28817159020272354,0.17580171296370625,0.20932701373560364
0.635,0.625,0.685,0.60525,0.71,0.5385,0.8604999999999999,0.86875,0.7665000000000001,0.71875,0.7334999999999999,0.71,0.4973388671875,0.5003204345703125,0.531060791015625,0.4999094013500047,0.49959579063848253,0.28817159020272354,0.17580171296370625,0.20932701373560364
0.635,0.625,0.685,0.6054999999999999,0.71,0.53825,0.861,0.86875,0.7667499999999999,0.71875,0.7332500000000001,0.71,0.49737548828125,0.5003173828125,0.5311004638671875,0.49984667920770026,0.49956791413079166,0.28817159020272354,0.17580171296370625,0.20932701373560364
0.635,0.625,0.685,0.60575,0.71,0.5379999999999999,0.8615,0.86875,0.767,0.71875,0.733,0.71,0.4973541259765625,0.5002777099609375,0.5311370849609375,0.4997630496846277,0.49953306849617807,0.28817159020272354,0.17580171296370625,0.20932701373560364
0.635,0.625,0.685,0.606,0.71,0.53775,0.862,0.86875,0.76725,0.71875,0.73275,0.71,0.4973052978515625,0.5003021240234375,0.531109619140625,0.49967245103463237,0.49946337722695094,0.28817159020272354,0.17580171296370625,0.20932701373560364
0.635,0.625,0.685,0.60625,0.71,0.5375,0.8625,0.86875,0.7675,0.71875,0.7325,0.71,0.4973388671875,0.500262451171875,0.5310943603515625,0.49965851278078693,0.4992821799337728,0.28817159020272354,0.17580171296370625,0.20932701373560364
0.635,0.625,0.685,0.60625,0.71,0.5375,0.8625,0.86875,0.7675,0.71875,0.7325,0.71,0.497296142578125,0.5002777099609375,0.53106689453125,0.49960972889232796,0.49906613699235614,0.28817159020272354,0.17580171296370625,0.20932701373560364
0.635,0.625,0.685,0.60625,0.71,0.5375,0.8625,0.86875,0.7675,0.71875,0.7325,0.71,0.497332763671875,0.5002655029296875,0.5310394287109375,0.4995818523846371,0.49877343366841453,0.28817159020272354,0.17580171296370625,0.20932701373560364
0.635,0.625,0.685,0.60625,0.71075,0.5379999999999999,0.8634999999999999,0.868,0.7667499999999999,0.71875,0.733,0.7092499999999999,0.49737548828125,0.50025634765625,0.531011962890625,0.4995400376299132,0.4984667920770026,0.28817159020272354,0.17580171296370625,0.20932701373560364
0.635,0.625,0.685,0.60625,0.7115,0.5385,0.8645,0.86725,0.7659999999999999,0.71875,0.7334999999999999,0.7084999999999999,0.4974517822265625,0.500213623046875,0.5309906005859375,0.4995191302559575,0.49822287262789516,0.28817159020272354,0.17580171296370625,0.20932701373560364
0.635,0.625,0.685,0.60625,0.7122499999999999,0.539,0.8654999999999999,0.8665,0.7652500000000001,0.71875,0.7340000000000001,0.7077500000000001,0.497540283203125,0.5002197265625,0.5309722900390625,0.49949822287518936,0.4982786256432769,0.28817159020272354,0.17580171296370625,0.20932701373560364
0.635,0.625,0.685,0.60625,0.713,0.5395,0.8665,0.86575,0.7645000000000001,0.71875,0.7345,0.7070000000000001,0.497589111328125,0.5001953125,0.531024169921875,0.4994494389867304,0.49852254509238436,0.28817159020272354,0.17580171296370625,0.20932701373560364
0.635,0.625,0.685,0.60625,0.71375,0.54,0.8675,0.865,0.76375,0.71875,0.735,0.70625,0.49759521484375,0.5001861572265625,0.531072998046875,0.49942156248585196,0.49885706317786227,0.28817159020272354,0.17580171296370625,0.20932701373560364
0.635,0.625,0.685,0.60625,0.71375,0.54,0.8675,0.865,0.76375,0.71875,0.735,0.70625,0.4975921630859375,0.500164794921875,0.5310699462890625,0.4994564081136531,0.4992264269115786,0.28817159020272354,0.17580171296370625,0.20932701373560364
0.635,0.625,0.685,0.60625,0.71375,0.54,0.8675,0.865,0.76375,0.71875,0.735,0.70625,0.4975921630859375,0.500152587890625,0.531103515625,0.4994982228683769,0.4996097288991404,0.28817159020272354,0.17580171296370625,0.20932701373560364
0.635,0.625,0.685,0.60625,0.71375,0.54,0.8675,0.865,0.76375,0.71875,0.735,0.70625,0.4974700927734375,0.50013427734375,0.53111572265625,0.4995400376299132,0.4997212349230914,0.28817159020272354,0.17580171296370625,0.20932701373560364
0.63525,0.62525,0.685,0.6065,0.71475,0.5405,0.868,0.86625,0.76425,0.7190000000000001,0.73575,0.706,0.4974395751953125,0.5001434326171875,0.531103515625,0.49965154366067666,0.4997142657961687,0.28817159020272354,0.17580171296370625,0.20932701373560364
0.6355,0.6255,0.685,0.60675,0.71575,0.541,0.8684999999999999,0.8675,0.7647499999999999,0.71925,0.7365,0.70575,0.4974395751953125,0.5001861572265625,0.5310791015625,0.49974214230385955,0.49965851278078693,0.28817159020272354,0.17580171296370625,0.20932701373560364
0.63575,0.62575,0.685,0.607,0.71675,0.5415,0.8690000000000001,0.86875,0.7652500000000001,0.7195,0.73725,0.7055,0.4974273681640625,0.500189208984375,0.531060791015625,0.49980486444616395,0.4995888215115598,0.28543396922527864,0.17699130794902457,0.20560826740366214
0.63575,0.626,0.68475,0.6072500000000001,0.718,0.54175,0.8695,0.87,0.7665000000000001,0.7197499999999999,0.73775,0.7055,0.4974029541015625,0.50020751953125,0.5310455322265625,0.49983971008077754,0.4996933584154005,0.28543396922527864,0.17699130794902457,0.20560826740366214
0.63575,0.62625,0.6845,0.6075,0.71925,0.542,0.87,0.87125,0.76775,0.72,0.7382500000000001,0.7055,0.497412109375,0.5002227783203125,0.531097412109375,0.4998327409538548,0.49988849396923657,0.2822313563723638,0.17675311354170906,0.2051988399602462
0.6355,0.62625,0.68425,0.6075,0.7195,0.54175,0.87,0.87125,0.7685,0.72,0.738,0.70575,0.497418212890625,0.5001953125,0.531134033203125,0.4997909261923185,0.5001393825452667,0.28178672459862236,0.17722874881970677,0.20202847069793214
0.63525,0.62625,0.684,0.6075,0.7197499999999999,0.5415,0.87,0.87125,0.76925,0.72,0.73775,0.706,0.4974029541015625,0.50013427734375,0.53114013671875,0.499756080557705,0.5004251167490981,0.2813362764620228,0.17841910029670405,0.20091986401331005
0.635,0.62625,0.68375,0.6075,0.72,0.54125,0.87,0.87125,0.77,0.72,0.7375,0.70625,0.49739990234375,0.5001312255859375,0.531207275390625,0.4996933584154005,0.500843264364461,0.2808741899362571,0.1783003769063173,0.20078156082629758
0.635,0.62625,0.68375,0.6075,0.72,0.54125,0.87,0.87125,0.77,0.72,0.7375,0.70625,0.4973724365234375,0.5001617431640625,0.531231689453125,0.49952609936925535,0.5010941529404912,0.2808741899362571,0.1783003769063173,0.20078156082629758
0.635,0.62625,0.68375,0.6075,0.72,0.54125,0.87,0.87125,0.77,0.72,0.7375,0.70625,0.4973846435546875,0.5001678466796875,0.53118896484375,0.49942156246541464,0.5014077636520133,0.2808887393385771,0.18020631779829505,0.2018620478407831
0.635,0.62625,0.68375,0.6075,0.72,0.54125,0.87,0.87125,0.77,0.72,0.7375,0.70625,0.4973541259765625,0.5001983642578125,0.5312042236328125,0.49928217992696033,0.5017422817443037,0.2776890261719168,0.18377862221358446,0.20458160711047418
0.635,0.62625,0.684,0.608,0.7197499999999999,0.5407500000000001,0.87225,0.87175,0.77075,0.72175,0.7382500000000001,0.7120000000000001,0.497271728515625,0.5002227783203125,0.53123779296875,0.49900341485686417,0.5020907381040643,0.2754047813345746,0.18104075471557832,0.20486485014427025
0.635,0.62625,0.68425,0.6085,0.7195,0.54025,0.8745,0.87225,0.7715000000000001,0.7234999999999999,0.7390000000000001,0.7177500000000001,0.4971954345703125,0.500189208984375,0.5311859130859375,0.4987455571675361,0.5023207193129512,0.2754047813345746,0.18104075471557832,0.20486485014427025
0.635,0.62625,0.6845,0.609,0.71925,0.5397500000000001,0.8767499999999999,0.87275,0.77225,0.7252500000000001,0.7397499999999999,0.7234999999999999,0.4971923828125,0.5001434326171875,0.531134033203125,0.4986340511231478,0.502543731374478,0.27404179287216,0.17782499428472015,0.20074381591139862
0.635,0.62625,0.68475,0.6095,0.7190000000000001,0.53925,0.879,0.8732500000000001,0.773,0.727,0.7404999999999999,0.72925,0.4971038818359375,0.5001129150390625,0.531201171875,0.49848769945095833,0.5027528051685347,0.27222834494624637,0.17746719588342288,0.1975851408472994
0.635,0.62625,0.685,0.61,0.71875,0.53875,0.88125,0.87375,0.77375,0.72875,0.74125,0.735,0.497015380859375,0.500042724609375,0.531158447265625,0.4984389155693118,0.5028782494395188,0.2717778911461971,0.17794308234029838,0.19717494689926127
0.635,0.62625,0.685,0.61,0.71875,0.53875,0.88125,0.87375,0.77375,0.72875,0.74125,0.735,0.4970123291015625,0.500006103515625,0.53109130859375,0.4985573907201855,0.5029340024549004,0.27086535648383187,0.17948997189163562,0.193319699231695
0.635,0.6267499999999999,0.685,0.611,0.7195,0.53925,0.8847499999999999,0.8752500000000001,0.7797499999999999,0.7345,0.74375,0.743,0.497021484375,0.499951171875,0.5310211181640625,0.49866889675094894,0.5029479406951209,0.27086535648383187,0.17948997189163562,0.193319699231695
0.635,0.62725,0.685,0.612,0.7202500000000001,0.5397500000000001,0.88825,0.8767499999999999,0.7857500000000001,0.7402500000000001,0.74625,0.7509999999999999,0.496978759765625,0.4998626708984375,0.53099365234375,0.49875949542138154,0.5029479406951209,0.26995572717117083,0.17984701380125395,0.1924918220373349
0.635,0.62775,0.685,0.613,0.721,0.54025,0.8917499999999999,0.87825,0.79175,0.746,0.74875,0.759,0.496893310546875,0.49971923828125,0.530767822265625,0.49895463098203,0.5026622064981021,0.26950237368486696,0.18187079600250058,0.19111221203177192
0.635,0.62825,0.685,0.614,0.72175,0.5407500000000001,0.8952500000000001,0.8797499999999999,0.7977500000000001,0.7517499999999999,0.75125,0.767,0.496832275390625,0.499664306640625,0.5305267333984375,0.49928914906750793,0.5021395219857109,0.2685985607350641,0.18294204584327164,0.189875734801369
0.635,0.62875,0.685,0.615,0.7225,0.54125,0.89875,0.88125,0.80375,0.7575,0.75375,0.775,0.496728515625,0.4997314453125,0.53048095703125,0.49958185239826197,0.5014774549144281,0.2713332650359054,0.18484711056422282,0.1904263356914441
0.635,0.62875,0.685,0.615,0.7225,0.54125,0.89875,0.88125,0.80375,0.7575,0.75375,0.775,0.4966461181640625,0.4998077392578125,0.5305023193359375,0.49986061746835814,0.500759634834576,0.26904901453511343,0.18448981747572668,0.19015733259085107
0.635,0.62875,0.685,0.615,0.7225,0.54125,0.89875,0.88125,0.80375,0.7575,0.75375,0.775,0.4966827392578125,0.4998779296875,0.530694580078125,0.5000557530153817,0.5000836295162602,0.27134490908852116,0.1850846785018667,0.19112333548420676
0.635,0.62875,0.685,0.615,0.7225,0.54125,0.89875,0.88125,0.80375,0.7575,0.75375,0.775,0.49681396484375,0.49998779296875,0.5310394287109375,0.5001393825384544,0.4997282040500141,0.26951982277344144,0.1836562582069928,0.19057216210827316
0.63525,0.62925,0.68625,0.6164999999999999,0.72225,0.54225,0.89875,0.8805,0.8035,0.758,0.754,0.7759999999999999,0.49697265625,0.500042724609375,0.5316925048828125,0.5080214650471706,0.49695449153477345,0.26722975590979137,0.18484560053591056,0.18768119030605454
0.6355,0.62975,0.6875,0.618,0.722,0.54325,0.89875,0.8797499999999999,0.80325,0.7585,0.75425,0.777,0.4970947265625,0.50003662109375,0.5317352294921875,0.5078263294933346,0.49737960827705907,0.25444839763932237,0.1851983679720383,0.17436804906517717
0.63575,0.63025,0.68875,0.6195,0.72175,0.54425,0.89875,0.879,0.8029999999999999,0.759,0.7545000000000001,0.778,0.49710693359375,0.5001251220703125,0.5317352294921875,0.5075127187681876,0.49788138541549454,0.2535504010523777,0.18400701473457556,0.17134607283562356
0.636,0.63075,0.69,0.621,0.7215,0.54525,0.89875,0.87825,0.8027500000000001,0.7595000000000001,0.7547499999999999,0.779,0.4969970703125,0.5001220703125,0.53154296875,0.5071782006827097,0.4982577182693212,0.2535504010523777,0.18400701473457556,0.17134607283562356
0.63625,0.63125,0.69125,0.6225,0.72125,0.54625,0.89875,0.8775,0.8025,0.76,0.755,0.78,0.4970855712890625,0.500079345703125,0.531396484375,0.5069064047463486,0.4985852672278764,0.24121368588254952,0.18281327086520557,0.16049248397019367
0.63625,0.63125,0.69125,0.6225,0.72125,0.54625,0.89875,0.8775,0.8025,0.76,0.755,0.78,0.497021484375,0.5001678466796875,0.5310302734375,0.4985573907338104,0.502543731374478,0.24121368588254952,0.18281327086520557,0.16049248397019367
0.63625,0.63125,0.69125,0.6225,0.72125,0.54625,0.89875,0.8775,0.8025,0.76,0.755,0.78,0.4970245361328125,0.500201416015625,0.53111572265625,0.4982925639107472,0.503463656182776,0.23480554350011623,0.18162141526998726,0.1560928735943246
0.63575,0.6315,0.69175,0.62275,0.721,0.54625,0.89925,0.878,0.804,0.7615000000000001,0.75575,0.78075,0.49698486328125,0.5001678466796875,0.5311920166015625,0.4980207679539489,0.5045508400099693,0.21653732187594044,0.17959410917683777,0.14551225955888664
0.63525,0.6317499999999999,0.6922499999999999,0.623,0.72075,0.54625,0.8997499999999999,0.8785,0.8055,0.763,0.7565000000000001,0.7815000000000001,0.4970550537109375,0.50018310546875,0.5313018798828125,0.49757474380364536,0.5058122519761683,0.21653732187594044,0.17959410917683777,0.14551225955888664
0.63475,0.632,0.6927500000000001,0.6232500000000001,0.7204999999999999,0.54625,0.9002500000000001,0.879,0.807,0.7645000000000001,0.75725,0.7822499999999999,0.4968353271484375,0.50013427734375,0.531298828125,0.49657815864688465,0.5071991082133513,0.21105045852223367,0.17994989666959002,0.14083277146122913
0.63425,0.63225,0.69325,0.6235,0.7202500000000001,0.54625,0.90075,0.8795000000000001,0.8085,0.7659999999999999,0.758,0.7829999999999999,0.4967071533203125,0.5000457763671875,0.531353759765625,0.49558157349012394,0.5075684718516936,0.21105045852223367,0.17994989666959002,0.14083277146122913
0.63375,0.6325,0.69375,0.62375,0.72,0.54625,0.90125,0.88,0.81,0.7675,0.75875,0.78375,0.4965484619140625,0.4998687744140625,0.5312957763671875,0.49447348230259974,0.5079238972498153,0.18867871644504444,0.18173208911610278,0.12735538333148905
0.63375,0.6325,0.69375,0.62375,0.72,0.54625,0.90125,0.88,0.81,0.7675,0.75875,0.78375,0.496441650390625,0.4996917724609375,0.531121826171875,0.4934281132505676,0.5081190327219022,0.16993385889278298,0.18815896907867155,0.12366240756357737
0.63375,0.6325,0.69375,0.62375,0.72,0.54625,0.90125,0.88,0.81,0.7675,0.75875,0.78375,0.496197509765625,0.4994903564453125,0.5308258056640625,0.4925987871399521,0.5079099589005959,0.16993385889278298,0.18815896907867155,0.12366240756357737
0.63375,0.6325,0.69375,0.62375,0.72,0.54625,0.90125,0.88,0.81,0.7675,0.75875,0.78375,0.4961029052734375,0.49945068359375,0.5307891845703125,0.49232002200854397,0.5071782005805232,0.16993385889278298,0.18815896907867155,0.12366240756357737
0.63325,0.6317499999999999,0.69325,0.623,0.7190000000000001,0.5457500000000001,0.904,0.8805,0.8122499999999999,0.7697499999999999,0.7605,0.7855,0.49609375,0.499273681640625,0.53072509765625,0.4922851763534931,0.5064115966598991,0.18319476410449162,0.19197110351902763,0.13854247305080894
0.63275,0.631,0.6927500000000001,0.62225,0.718,0.54525,0.90675,0.8809999999999999,0.8145,0.772,0.76225,0.7872499999999999,0.4960906982421875,0.4992462158203125,0.530657958984375,0.49218760856295024,0.506007387366506,0.18319476410449162,0.19197110351902763,0.13854247305080894
0.63225,0.63025,0.6922499999999999,0.6214999999999999,0.7170000000000001,0.5447500000000001,0.9095,0.8815000000000001,0.81675,0.77425,0.764,0.789,0.4960723876953125,0.4991912841796875,0.53072509765625,0.4922503306984422,0.5054359189724682,0.18775454339351313,0.19530596706363482,0.1450098745066713
0.6317499999999999,0.6295000000000001,0.69175,0.62075,0.716,0.54425,0.9122499999999999,0.882,0.8190000000000001,0.7765000000000001,0.76575,0.7907500000000001,0.4960845947265625,0.4992095947265625,0.530902099609375,0.49237577496942625,0.5051780612558904,0.2083012104825221,0.20757391874489192,0.1703225185827322
0.63125,0.62875,0.69125,0.62,0.715,0.54375,0.915,0.8825,0.82125,0.77875,0.7675,0.7925,0.4960662841796875,0.499078369140625,0.5309295654296875,0.49284967568192006,0.5051083700002881,0.21513360754661923,0.2128139652122751,0.1783012696547
0.63125,0.62875,0.69125,0.62,0.715,0.54375,0.915,0.8825,0.82125,0.77875,0.7675,0.7925,0.4959930419921875,0.49898681640625,0.5308990478515625,0.4931772247085996,0.5051223082405086,0.2352327205218334,0.22281867995801274,0.20005136120393271
0.63125,0.62875,0.69125,0.62,0.715,0.54375,0.915,0.8825,0.82125,0.77875,0.7675,0.7925,0.4959014892578125,0.4988800048828125,0.530914306640625,0.493790507932298,0.5047529444931674,0.2352327205218334,0.22281867995801274,0.20005136120393271
0.63125,0.62875,0.69125,0.62,0.715,0.54375,0.915,0.8825,0.82125,0.77875,0.7675,0.7925,0.4958221435546875,0.4988128662109375,0.5308807373046875,0.4944525750512679,0.5044950868310891,0.2539717673746864,0.22282069234408056,0.20900750224359865
0.63075,0.62825,0.6905,0.61975,0.71575,0.54225,0.9157500000000001,0.88325,0.821,0.78,0.76825,0.7929999999999999,0.49571533203125,0.498712158203125,0.5307342529296875,0.4952609938015526,0.5039584640921022,0.2617312485034688,0.22163134706011717,0.21783393608452403
0.63025,0.62775,0.68975,0.6195,0.7165,0.5407500000000001,0.9165000000000001,0.884,0.82075,0.78125,0.769,0.7935,0.4955535888671875,0.4986602783203125,0.5305999755859375,0.4959300299588835,0.5031639836297251,0.2617312485034688,0.22163134706011717,0.21783393608452403
0.62975,0.62725,0.6890000000000001,0.61925,0.7172499999999999,0.53925,0.9172499999999999,0.8847499999999999,0.8205,0.7825,0.7697499999999999,0.794,0.495526123046875,0.498724365234375,0.5307952880859375,0.49680117079016073,0.5022789045173528,0.25943244860035686,0.22246515750772888,0.2227865068970465
0.62925,0.6267499999999999,0.68825,0.619,0.718,0.53775,0.9179999999999999,0.8855,0.82025,0.78375,0.7705,0.7945,0.4956878662109375,0.4989227294921875,0.5315521240234375,0.4975329290829837,0.5019165098901218,0.3009325827080144,0.22818562347196997,0.27281638887528464
0.62875,0.62625,0.6875,0.61875,0.71875,0.53625,0.91875,0.88625,0.82,0.785,0.77125,0.795,0.4959320068359375,0.49915771484375,0.533050537109375,0.49759565121847565,0.5035542547510221,0.3086804254476307,0.22568645421655772,0.2784685600280339
0.62875,0.62625,0.6875,0.61875,0.71875,0.53625,0.91875,0.88625,0.82,0.785,0.77125,0.795,0.4962921142578125,0.499346923828125,0.5354095458984375,0.4975747438581448,0.5078890514925779,0.3086804254476307,0.22568645421655772,0.2784685600280339
0.62875,0.62625,0.6875,0.61875,0.71875,0.53625,0.91875,0.88625,0.82,0.785,0.77125,0.795,0.4969573974609375,0.4996368408203125,0.5398468017578125,0.49684995463093273,0.5163077569310294,0.3086804254476307,0.22568645421655772,0.2784685600280339
0.62875,0.62625,0.6875,0.61875,0.71875,0.53625,0.91875,0.88625,0.82,0.785,0.77125,0.795,0.4974212646484375,0.49970703125,0.5448272705078125,0.4968429855108224,0.5291867031980849,0.3342285982496984,0.22068786895942394,0.3015152398228222
0.6275,0.626,0.6875,0.617,0.71875,0.5347500000000001,0.92125,0.888,0.8225,0.7865000000000001,0.77275,0.7959999999999999,0.4977630615234375,0.4999847412109375,0.55025634765625,0.49726810224629564,0.5439891279916897,0.3342285982496984,0.22068786895942394,0.3015152398228222
0.62625,0.62575,0.6875,0.61525,0.71875,0.53325,0.92375,0.8897499999999999,0.825,0.7879999999999999,0.77425,0.797,0.498504638671875,0.500537109375,0.5557159423828125,0.4985643598402958,0.5615792034998812,0.3442694132026691,0.22033158354148455,0.31103039068238586
0.625,0.6255,0.6875,0.6135,0.71875,0.53175,0.92625,0.8915000000000001,0.8275,0.7895,0.77575,0.7979999999999999,0.4991668701171875,0.5015625,0.5624114990234375,0.5001324133910943,0.582660812161785,0.3647753544247714,0.2174765071139724,0.3333623601644454
0.62375,0.62525,0.6875,0.61175,0.71875,0.53025,0.92875,0.89325,0.83,0.7909999999999999,0.77725,0.799,0.499920654296875,0.503533935546875,0.5695709228515625,0.5012823193537796,0.6082375081452732,0.3647753544247714,0.2174765071139724,0.3333623601644454
0.6225,0.625,0.6875,0.61,0.71875,0.52875,0.93125,0.895,0.8325,0.7925,0.77875,0.8,0.5015167236328125,0.50579833984375,0.5744140625,0.5007247891999624,0.6384556425911655,0.3720872984301082,0.21592973871950566,0.33901995862234047
0.6225,0.625,0.6875,0.61,0.71875,0.52875,0.93125,0.895,0.8325,0.7925,0.77875,0.8,0.50308837890625,0.5076751708984375,0.5783172607421875,0.4997630496982525,0.6662624596259183,0.3880509037883138,0.21343057241913904,0.3533716379329127
0.6225,0.625,0.6875,0.61,0.71875,0.52875,0.93125,0.895,0.8325,0.7925,0.77875,0.8,0.503155517578125,0.5095062255859375,0.58155517578125,0.496348177410748,0.6944874245212819,0.5318745887733765,0.2128502915880924,0.46817408469118627
0.6225,0.625,0.6875,0.61,0.71875,0.52875,0.93125,0.895,0.8325,0.7925,0.77875,0.8,0.50445556640625,0.5107391357421875,0.583782958984375,0.4918112759679961,0.7176946168333019,0.5519766127617446,0.21237566398065139,0.4779671374132907
0.62475,0.62825,0.68875,0.61275,0.7215,0.5365,0.9322499999999999,0.898,0.8334999999999999,0.7955,0.78,0.80125,0.5014251708984375,0.511468505859375,0.585455322265625,0.49335145298385397,0.7314795478563273,0.5519766127617446,0.21237566398065139,0.4779671374132907
0.627,0.6315,0.69,0.6154999999999999,0.72425,0.54425,0.93325,0.9009999999999999,0.8345,0.7985,0.78125,0.8025,0.5016204833984375,0.5094818115234375,0.5752227783203125,0.5028015892818041,0.7200989626718547,0.6145902289963222,0.2095227210960775,0.5083054364730111
0.62925,0.63475,0.69125,0.6182500000000001,0.727,0.552,0.93425,0.904,0.8355,0.8015000000000001,0.7825,0.80375,0.501947021484375,0.5071563720703125,0.565460205078125,0.5000557532878791,0.6936999097523606,0.6145902289963222,0.2095227210960775,0.5083054364730111
0.6315,0.638,0.6925,0.621,0.7297499999999999,0.55975,0.93525,0.907,0.8365,0.8045,0.78375,0.805,0.5067626953125,0.504541015625,0.5563507080078125,0.49845285424552815,0.6480730357552817,0.6301121305842895,0.2079768406928198,0.5172711914469283
0.63375,0.64125,0.69375,0.62375,0.7325,0.5675,0.93625,0.91,0.8375,0.8075,0.785,0.80625,0.5129913330078125,0.5022735595703125,0.5459197998046875,0.4969405536011124,0.5918252131182272,0.692254904599841,0.20845762809285753,0.5481533981843981
0.63525,0.64225,0.6942499999999999,0.625,0.73675,0.56975,0.9357500000000001,0.91125,0.8375,0.805,0.7845,0.80425,0.52401123046875,0.500469970703125,0.5322296142578125,0.48990173553179384,0.5340232760970858,0.692254904599841,0.20845762809285753,0.5481533981843981
0.6367499999999999,0.64325,0.69475,0.62625,0.741,0.5720000000000001,0.93525,0.9125,0.8375,0.8025,0.784,0.8022499999999999,0.5325439453125,0.502459716796875,0.5312713623046875,0.47719004780676333,0.4896508463358321,0.7187679706568968,0.2116733870461929,0.5580771777913014
0.63825,0.64425,0.69525,0.6275,0.7452500000000001,0.5742499999999999,0.93475,0.91375,0.8375,0.8,0.7835,0.80025,0.5425628662109375,0.5052581787109375,0.5294830322265625,0.48128092528995986,0.45868004626403586,0.7187679706568968,0.2116733870461929,0.5580771777913014
0.63975,0.6452500000000001,0.69575,0.62875,0.7495,0.5765,0.93425,0.915,0.8375,0.7975,0.7829999999999999,0.79825,0.549188232421875,0.5080902099609375,0.5269927978515625,0.4863544496351971,0.4418077896367081,0.7818437017344886,0.22917736928783441,0.5857748849582055
0.64125,0.64625,0.69625,0.63,0.75375,0.57875,0.93375,0.91625,0.8375,0.795,0.7825,0.79625,0.5555938720703125,0.509967041015625,0.5243377685546875,0.497992891446258,0.4323437159160296,0.7274778409459451,0.26428331421876855,0.5536320469593201
0.64125,0.64625,0.69625,0.63,0.75375,0.57875,0.93375,0.91625,0.8375,0.795,0.7825,0.79625,0.562188720703125,0.509320068359375,0.5224853515625,0.5163426024089569,0.42036378651107176,0.7274778409459451,0.26428331421876855,0.5536320469593201
0.64125,0.64625,0.69625,0.63,0.75375,0.57875,0.93375,0.91625,0.8375,0.795,0.7825,0.79625,0.5666107177734375,0.506494140625,0.5213165283203125,0.5327688346952331,0.40587497168643377,0.6826907029211569,0.27154123722872503,0.5336492079450641
0.64125,0.64625,0.69625,0.63,0.75375,0.57875,0.93375,0.91625,0.8375,0.795,0.7825,0.79625,0.5666778564453125,0.5026947021484375,0.52147216796875,0.540950589770625,0.38650776689865596,0.5232811533470362,0.28890676376284646,0.4473679161779848
0.642,0.6465000000000001,0.6965,0.63025,0.754,0.57825,0.935,0.91675,0.8375,0.7955,0.7822499999999999,0.79675,0.5618804931640625,0.4996612548828125,0.5226470947265625,0.5437173332338798,0.35769042673941914,0.5232811533470362,0.28890676376284646,0.4473679161779848
0.64275,0.6467499999999999,0.69675,0.6305,0.75425,0.57775,0.93625,0.9172499999999999,0.8375,0.7959999999999999,0.782,0.7972499999999999,0.5514251708984375,0.4982696533203125,0.524273681640625,0.5399191592313108,0.32525611089946904,0.4657359281666614,0.2928289396695552,0.41070865632697645
0.6435,0.647,0.6970000000000001,0.63075,0.7545000000000001,0.57725,0.9375,0.9177500000000001,0.8375,0.7965000000000001,0.78175,0.7977500000000001,0.536773681640625,0.49906005859375,0.526416015625,0.5311659360888779,0.29708689940098365,0.3680565023348959,0.29543651772861446,0.3265010753872792
0.64425,0.64725,0.6972499999999999,0.631,0.7547499999999999,0.57675,0.93875,0.91825,0.8375,0.797,0.7815000000000001,0.79825,0.5207794189453125,0.5008056640625,0.5285491943359375,0.5243222532736482,0.27521777989412066,0.32516429228708316,0.2926928790265108,0.28708508122742143
0.645,0.6475,0.6975,0.63125,0.755,0.57625,0.94,0.91875,0.8375,0.7975,0.78125,0.79875,0.5075225830078125,0.5030548095703125,0.529718017578125,0.5211164547529505,0.25984388839596173,0.2959863466007326,0.28387825571375586,0.24451202592636373
0.645,0.6475,0.6975,0.63125,0.755,0.57625,0.94,0.91875,0.8375,0.7975,0.78125,0.79875,0.4970306396484375,0.50382080078125,0.5294281005859375,0.52470555526121,0.2578995041576907,0.2690751966631497,0.2728016631800527,0.20718023961802792
0.645,0.6475,0.6975,0.63125,0.755,0.57625,0.94,0.91875,0.8375,0.7975,0.78125,0.79875,0.4893035888671875,0.503509521484375,0.528033447265625,0.5292703332389025,0.26426928397144867,0.21021065388111926,0.2532697513306357,0.13992909644315937
0.645,0.6475,0.6975,0.63125,0.755,0.57625,0.94,0.91875,0.8375,0.7975,0.78125,0.79875,0.4842926025390625,0.5024658203125,0.5263427734375,0.5325388532410985,0.27309916825258684,0.11032551826922124,0.19171040791683203,0.007989987629511535
0.645,0.6475,0.6975,0.63125,0.755,0.57625,0.94,0.91875,0.8375,0.7975,0.78125,0.79875,0.4812835693359375,0.50137939453125,0.5245941162109375,0.5343717333015882,0.2808627742683799,0.11032551826922124,0.19171040791683203,0.007989987629511535
0.6455,0.6475,0.6975,0.63125,0.7555,0.57675,0.94,0.919,0.838,0.79825,0.7815000000000001,0.7995,0.4774139404296875,0.500079345703125,0.5228118896484375,0.5358073736792903,0.2911492053610599,0.11489403059770459,0.18028179852858883,0.0046858654857175434
0.6459999999999999,0.6475,0.6975,0.63125,0.7559999999999999,0.57725,0.94,0.91925,0.8384999999999999,0.799,0.78175,0.80025,0.474853515625,0.4991851806640625,0.52098388671875,0.5351243989274922,0.2995609417815876,0.11718119211165046,0.17670999647105498,0.0019277800058372496
0.6465000000000001,0.6475,0.6975,0.63125,0.7565000000000001,0.57775,0.94,0.9195,0.8390000000000001,0.79975,0.782,0.8009999999999999,0.4699066162109375,0.498876953125,0.517822265625,0.532998815277376,0.3123144462982598,0.11718119211165046,0.17670999647105498,0.0019277800058372496
0.647,0.6475,0.6975,0.63125,0.757,0.57825,0.94,0.91975,0.8395,0.8005,0.7822499999999999,0.80175,0.463134765625,0.499578857421875,0.5143218994140625,0.5317513419601436,0.3288939986819673,0.11535029509716231,0.1764723029439722,0.00220792656976899
0.6475,0.6475,0.6975,0.63125,0.7575,0.57875,0.94,0.92,0.84,0.80125,0.7825,0.8025,0.4555908203125,0.50048828125,0.5111663818359375,0.5323437180960086,0.3507352423623828,0.11626865178583548,0.1762337302908172,0.0023439250226790337
0.6475,0.6475,0.6975,0.63125,0.7575,0.57875,0.94,0.92,0.84,0.80125,0.7825,0.8025,0.4491943359375,0.5010284423828125,0.5080413818359375,0.534901387519959,0.37431179809474724,0.11488530322169245,0.17635282897199778,0.0016524752106032148
0.6475,0.6475,0.6975,0.63125,0.7575,0.57875,0.94,0.92,0.84,0.80125,0.7825,0.8025,0.4447357177734375,0.50042724609375,0.5042938232421875,0.5386507781722513,0.39969335631717084,0.11580656526006983,0.17635282897199778,0.0
0.64775,0.6475,0.6972499999999999,0.63075,0.75725,0.5785,0.9392499999999999,0.91975,0.83975,0.8009999999999999,0.7825,0.8025,0.4438446044921875,0.4986785888671875,0.502044677734375,0.5424489519568223,0.4235417070253431,0.11260686342030897,0.17611475867659832,0.0016583471058306738
0.648,0.6475,0.6970000000000001,0.63025,0.757,0.57825,0.9384999999999999,0.9195,0.8395,0.8007500000000001,0.7825,0.8025,0.450762939453125,0.4973480224609375,0.4982147216796875,0.5389365119332744,0.4531674666433578,0.11260686342030897,0.17611475867659832,0.0016583471058306738
0.64825,0.6475,0.69675,0.62975,0.7567499999999999,0.578,0.9377500000000001,0.91925,0.8392499999999999,0.8005,0.7825,0.8025,0.3629241943359375,0.487298583984375,0.539410400390625,0.5330963837219125,0.47944804468447544,0.1148823922085385,0.17587668838119888,0.0008224385787034891
0.6485,0.6475,0.6965,0.62925,0.7565000000000001,0.57775,0.937,0.919,0.8390000000000001,0.80025,0.7825,0.8025,0.274798583984375,0.47783203125,0.580609130859375,0.5256882019052528,0.5014704855967572,0.1148823922085385,0.17587668838119888,0.0008224385787034891
0.64875,0.6475,0.69625,0.62875,0.75625,0.5775,0.93625,0.91875,0.83875,0.8,0.7825,0.8025,0.23493347167968748,0.4556793212890625,0.6805938720703125,0.4729388787625477,0.6092968148380318,0.11443484942164314,0.17647180058621664,0.0027539206017570387
0.64875,0.6475,0.69625,0.62875,0.75625,0.5775,0.93625,0.91875,0.83875,0.8,0.7825,0.8025,0.23346557617187502,0.4590301513671875,0.7606903076171875,0.45443584726642156,0.6674263028478338,0.11443484942164314,0.17647180058621664,0.0027539206017570387
0.64875,0.6475,0.69625,0.62875,0.75625,0.5775,0.93625,0.91875,0.83875,0.8,0.7825,0.8025,0.2388458251953125,0.4575286865234375,0.78101806640625,0.443194645574144,0.674228170615405,0.11580365991036558,0.17682896808527387,0.0011028835661147126
0.64775,0.64725,0.6955,0.62975,0.7555,0.58,0.93025,0.91,0.8334999999999999,0.7879999999999999,0.77825,0.7725,0.3396514892578125,0.471929931640625,0.73338623046875,0.4305387112459915,0.6818942103666403,0.11442612204563102,0.1762338558802561,0.002340909466469464
0.6467499999999999,0.647,0.69475,0.63075,0.7547499999999999,0.5825,0.92425,0.90125,0.82825,0.7759999999999999,0.774,0.7425,0.433251953125,0.477056884765625,0.6950927734375,0.4250679464549741,0.6796362130529325,0.11534447873430413,0.1764723029439722,0.001926896045909693
0.64575,0.6467499999999999,0.6940000000000001,0.6317499999999999,0.754,0.585,0.91825,0.8925,0.823,0.764,0.7697499999999999,0.7125,0.4797210693359375,0.498846435546875,0.6005035400390625,0.4691894901812354,0.5854275581320155,0.11442030568277285,0.17694844353477113,0.00041201320021188193
0.6447499999999999,0.6465000000000001,0.69325,0.63275,0.75325,0.5875,0.9122499999999999,0.88375,0.8177500000000001,0.752,0.7655,0.6825,0.4888580322265625,0.4987823486328125,0.5268585205078125,0.48183845555277605,0.5323785637510594,0.11442030568277285,0.17694844353477113,0.00041201320021188193
0.64375,0.64625,0.6925,0.63375,0.7525,0.59,0.90625,0.875,0.8125,0.74,0.76125,0.6525,0.4875335693359375,0.5009857177734375,0.515960693359375,0.4906334937428675,0.5225102798649962,0.11808791041115754,0.1768293448535905,0.0019257649948212785
0.642,0.64375,0.69175,0.632,0.74875,0.58325,0.9047499999999999,0.8732500000000001,0.81175,0.738,0.7605,0.657,0.486090087890625,0.4957733154296875,0.5276275634765625,0.5002787651314081,0.5086208097513387,0.11808791041115754,0.1768293448535905,0.0019257649948212785
0.6402500000000001,0.64125,0.691,0.63025,0.745,0.5765,0.90325,0.8715,0.8109999999999999,0.736,0.7597499999999999,0.6615000000000001,0.4918121337890625,0.49991455078125,0.529766845703125,0.5025925152969993,0.5045856854470223,0.11624829168410702,0.17671049882881054,0.0017911873160861458
0.6385000000000001,0.63875,0.69025,0.6285000000000001,0.74125,0.56975,0.9017499999999999,0.8697499999999999,0.81025,0.7340000000000001,0.759,0.6659999999999999,0.49522705078125,0.501446533203125,0.53055419921875,0.500216042995916,0.5025228238778986,0.11624829168410702,0.17671049882881054,0.0017911873160861458
0.6367499999999999,0.63625,0.6895,0.6267499999999999,0.7375,0.563,0.9002500000000001,0.868,0.8095,0.732,0.75825,0.6705,0.496820068359375,0.5000701904296875,0.531329345703125,0.4963412082906377,0.5034427486725715,0.1171724647356383,0.1759961638306961,0.0008265912762765588
0.635,0.63375,0.68875,0.625,0.73375,0.55625,0.89875,0.86625,0.80875,0.73,0.7575,0.675,0.4965545654296875,0.4998931884765625,0.5311492919921875,0.4955746043155142,0.5012544428869633,0.11671619457273084,0.17682959603246828,0.0019300542885642596
0.635,0.63375,0.68875,0.625,0.73375,0.55625,0.89875,0.86625,0.80875,0.73,0.7575,0.675,0.4965118408203125,0.4997406005859375,0.53099365234375,0.4958603385125331,0.5003066416254741,0.11671619457273084,0.17682959603246828,0.0019300542885642596
0.635,0.63325,0.6890000000000001,0.625,0.7334999999999999,0.556,0.9002500000000001,0.86625,0.81,0.733,0.75875,0.6825,0.496563720703125,0.4995635986328125,0.5310821533203125,0.49671754114446437,0.49921945779828075,0.11351067637011182,0.17611563780267053,0.0011057433852897963
0.635,0.63275,0.6892499999999999,0.625,0.7332500000000001,0.5557500000000001,0.9017499999999999,0.86625,0.81125,0.736,0.76,0.69,0.4966522216796875,0.4995452880859375,0.531097412109375,0.49764443505924766,0.49834134779239375,0.11351067637011182,0.17611563780267053,0.0011057433852897963
0.635,0.63225,0.6895,0.625,0.733,0.5555,0.90325,0.86625,0.8125,0.7390000000000001,0.76125,0.6975,0.4967742919921875,0.499542236328125,0.5310699462890625,0.4984319464287642,0.4977768485048414,0.11029933614118488,0.1764726797122889,0.0012430042652223638
0.635,0.6317499999999999,0.68975,0.625,0.73275,0.55525,0.9047499999999999,0.86625,0.81375,0.742,0.7625,0.705,0.496905517578125,0.49959716796875,0.5310272216796875,0.4990452296047756,0.49750505254804306,0.11714337159444803,0.1782599016464483,0.00041201059009398597
0.635,0.63125,0.69,0.625,0.7325,0.555,0.90625,0.86625,0.815,0.745,0.76375,0.7125,0.497088623046875,0.499664306640625,0.530999755859375,0.499770018804738,0.4974771760403522,0.11166814096645762,0.17706816868562328,0.0005526759338026744
0.635,0.63125,0.69,0.625,0.7325,0.555,0.90625,0.86625,0.815,0.745,0.76375,0.7125,0.4972686767578125,0.4997344970703125,0.530908203125,0.500195135553836,0.49802076794713646,0.11763164591169975,0.17659152721459168,0.0002730844549435548
0.635,0.63125,0.69,0.625,0.7325,0.555,0.90625,0.86625,0.815,0.745,0.76375,0.7125,0.497381591796875,0.4997039794921875,0.5308624267578125,0.5005366227798616,0.49874555714709884,0.11121478181670408,0.17754342867282719,0.0017945708989190946
0.635,0.63125,0.69,0.625,0.7325,0.555,0.90625,0.86625,0.815,0.745,0.76375,0.7125,0.4974578857421875,0.4996490478515625,0.5308258056640625,0.5009687086558823,0.4996933584085881,0.1130456788311922,0.17552077825405335,0.0006894034796450919
0.63575,0.6317499999999999,0.69025,0.6255,0.7347499999999999,0.55625,0.9065000000000001,0.8682500000000001,0.816,0.747,0.7647499999999999,0.71675,0.4974639892578125,0.499615478515625,0.5308441162109375,0.5013171650088305,0.500592375774806,0.11439993991759466,0.17647406267363944,0.000970022474916068
0.6365,0.63225,0.6905,0.626,0.737,0.5575,0.90675,0.8702500000000001,0.8170000000000001,0.7490000000000001,0.76575,0.721,0.4973388671875,0.499749755859375,0.5308746337890625,0.5015471461904677,0.501240504571806,0.112115683753353,0.17683085340437998,0.0009684494438638754
0.63725,0.63275,0.69075,0.6265,0.73925,0.55875,0.907,0.87225,0.818,0.7509999999999999,0.7667499999999999,0.7252500000000001,0.497119140625,0.499737548828125,0.53087158203125,0.5017353126241934,0.5014147327448739,0.112115683753353,0.17683085340437998,0.0009684494438638754
0.638,0.63325,0.691,0.627,0.7415,0.56,0.9072499999999999,0.87425,0.8190000000000001,0.753,0.76775,0.7295,0.497039794921875,0.4997467041015625,0.5308563232421875,0.5019513555383602,0.5013798871170727,0.11166232460359946,0.1765924063406639,0.0011045905832189156
0.63875,0.63375,0.69125,0.6275,0.74375,0.56125,0.9075,0.87625,0.82,0.755,0.76875,0.73375,0.4969696044921875,0.499853515625,0.530853271484375,0.502062861541874,0.5009338630008314,0.1157832941451874,0.17730661574933942,0.0017917415311194684
0.63875,0.63375,0.69125,0.6275,0.74375,0.56125,0.9075,0.87625,0.82,0.755,0.76875,0.73375,0.49683837890625,0.4999603271484375,0.5308502197265625,0.5021255836773659,0.5003833019807493,0.11441157830676071,0.17623536443104554,0.0013771704153691755
0.63875,0.63375,0.69125,0.6275,0.74375,0.56125,0.9075,0.87625,0.82,0.755,0.76875,0.73375,0.496795654296875,0.4999114990234375,0.5308319091796875,0.5021743675726374,0.49972820403638923,0.11441157830676071,0.17623536443104554,0.0013771704153691755
0.63875,0.63375,0.69125,0.6275,0.74375,0.56125,0.9075,0.87625,0.82,0.755,0.76875,0.73375,0.4968414306640625,0.499993896484375,0.5308563232421875,0.5020419541542934,0.4991915812701526,0.1157832941451874,0.17623498766272888,0.0024797677385545915
0.6385000000000001,0.63375,0.691,0.62725,0.7425,0.56175,0.90675,0.8765000000000001,0.8195,0.755,0.7685,0.7354999999999999,0.49686279296875,0.5000335693359375,0.53082275390625,0.5017562199572745,0.4988361557902817,0.11395239713069928,0.17623498766272888,0.0006857206032933566
0.63825,0.63375,0.69075,0.627,0.74125,0.56225,0.9059999999999999,0.8767499999999999,0.8190000000000001,0.755,0.76825,0.73725,0.49697265625,0.5000885009765625,0.53092041015625,0.5012962576008126,0.4989546309479678,0.11579202152119951,0.1763544631122261,0.002205892417888449
0.638,0.63375,0.6905,0.6267499999999999,0.74,0.56275,0.9052500000000001,0.877,0.8184999999999999,0.755,0.768,0.7390000000000001,0.4970245361328125,0.5001190185546875,0.531005859375,0.5007456965671057,0.4993100564142139,0.11623956430809487,0.17671125236544385,0.0022047831177825056
0.63775,0.63375,0.69025,0.6265,0.73875,0.56325,0.9045000000000001,0.87725,0.818,0.755,0.76775,0.74075,0.4970733642578125,0.5001190185546875,0.5310638427734375,0.5000975677701056,0.49975608055089255,0.11623956430809487,0.17671125236544385,0.0022047831177825056
0.6375,0.63375,0.69,0.62625,0.7375,0.56375,0.90375,0.8775,0.8175,0.755,0.7675,0.7425,0.4970367431640625,0.5000244140625,0.53109130859375,0.4995470067363986,0.5002021046739463,0.11258940866828471,0.1765924063406639,0.001378712995045911
0.6375,0.63375,0.69,0.62625,0.7375,0.56375,0.90375,0.8775,0.8175,0.755,0.7675,0.7425,0.4969329833984375,0.499945068359375,0.531170654296875,0.49916370476246175,0.5004251167422856,0.1144086672936068,0.17575884854945278,0.0008254506547558594
0.6375,0.63375,0.69,0.62625,0.7375,0.56375,0.90375,0.8775,0.8175,0.755,0.7675,0.7425,0.4967559814453125,0.4998748779296875,0.5310760498046875,0.4991427973816936,0.5003345180922903,0.11441157830676071,0.17671150502184443,0.002065196622804298
0.6375,0.63375,0.69,0.62625,0.7375,0.56375,0.90375,0.8775,0.8175,0.755,0.7675,0.7425,0.4967498779296875,0.4997833251953125,0.530975341796875,0.4994355007260725,0.5000766604029623,0.11441157830676071,0.17671150502184443,0.002065196622804298
0.63775,0.63325,0.68975,0.62575,0.7365,0.56225,0.9035,0.8765000000000001,0.81575,0.754,0.7667499999999999,0.74,0.4967681884765625,0.4997344970703125,0.5309539794921875,0.5001115060307635,0.499986061752967,0.11395821349355746,0.17635408486638662,0.001926896045909693
0.638,0.63275,0.6895,0.62525,0.7354999999999999,0.5607500000000001,0.90325,0.8755,0.8140000000000001,0.753,0.7659999999999999,0.7375,0.49681396484375,0.499755859375,0.5310546875,0.5007805422153441,0.4999651543653864,0.11669292345784842,0.17671075000768832,0.0009615900540323022
0.63825,0.63225,0.6892499999999999,0.62475,0.7345,0.55925,0.903,0.8745,0.8122499999999999,0.752,0.7652500000000001,0.735,0.4968719482421875,0.499847412109375,0.53109130859375,0.5013868562508079,0.5001184751644986,0.11669292345784842,0.17671075000768832,0.0009615900540323022
0.6385000000000001,0.6317499999999999,0.6890000000000001,0.62425,0.7334999999999999,0.55775,0.90275,0.8734999999999999,0.8105,0.7509999999999999,0.7645000000000001,0.7325,0.496942138671875,0.4998931884765625,0.5311492919921875,0.5017980347324357,0.5003554254866833,0.11487948119538456,0.17599691736732945,0.0015121813736751048
0.63875,0.63125,0.68875,0.62375,0.7325,0.55625,0.9025,0.8725,0.80875,0.75,0.76375,0.73,0.49691162109375,0.5000030517578125,0.531182861328125,0.5018816642555083,0.5005226845328286,0.11121769282985801,0.17659165280403055,0.002205326022304941
0.63875,0.63125,0.68875,0.62375,0.7325,0.55625,0.9025,0.8725,0.80875,0.75,0.76375,0.73,0.4968994140625,0.500091552734375,0.53116455078125,0.5016377448200257,0.5005087462789831,0.11121769282985801,0.17659165280403055,0.002205326022304941
0.63875,0.63125,0.68875,0.62375,0.7325,0.55625,0.9025,0.8725,0.80875,0.75,0.76375,0.73,0.4968994140625,0.5001251220703125,0.53106689453125,0.5013101958546581,0.5004948080251377,0.11349903798094574,0.1768297216219072,0.0023436257291602524
0.6385000000000001,0.63025,0.68825,0.62275,0.73175,0.555,0.9009999999999999,0.8715,0.8072499999999999,0.74875,0.76325,0.7284999999999999,0.4968536376953125,0.5000885009765625,0.5310546875,0.5008014495961123,0.5004390550029435,0.11258649765513076,0.17623536443104554,0.00219989610704126
0.63825,0.62925,0.6877500000000001,0.62175,0.731,0.55375,0.8995000000000001,0.8704999999999999,0.8057500000000001,0.7475,0.76275,0.727,0.49683837890625,0.500103759765625,0.5310699462890625,0.5003414872260254,0.5003763328538267,0.11258649765513076,0.17623536443104554,0.00219989610704126
0.638,0.62825,0.6872499999999999,0.62075,0.7302500000000001,0.5525,0.898,0.8695,0.80425,0.74625,0.76225,0.7254999999999999,0.4968505859375,0.500067138671875,0.53106689453125,0.5000209073807681,0.5004111784884402,0.1189917233609604,0.17623523884160666,0.0023439154522467438
0.6375,0.62725,0.6865000000000001,0.61975,0.72875,0.5507500000000001,0.8959999999999999,0.8684999999999999,0.8022499999999999,0.745,0.7617499999999999,0.7254999999999999,0.496795654296875,0.5000213623046875,0.5310821533203125,0.4997700188115504,0.5004529932499765,0.11213022749222329,0.17599679177789054,0.0021997743015394356
0.6367499999999999,0.626,0.68625,0.6185,0.727,0.5485,0.894,0.86775,0.79975,0.7434999999999999,0.76125,0.726,0.496734619140625,0.4999786376953125,0.5310516357421875,0.4996794201615551,0.5000209073807681,0.11213022749222329,0.17599679177789054,0.0021997743015394356
0.63625,0.62575,0.6865000000000001,0.6182500000000001,0.726,0.5475,0.8935,0.868,0.79875,0.7432500000000001,0.76125,0.728,0.49674072265625,0.5000152587890625,0.531060791015625,0.4997839570653958,0.4994982228615645,0.11716373735962622,0.17647293236868947,0.0020663146233032333
0.63575,0.6255,0.68675,0.618,0.725,0.5465,0.893,0.8682500000000001,0.7977500000000001,0.743,0.76125,0.73,0.4967254638671875,0.49996337890625,0.5310028076171875,0.49980486444616395,0.4989128161864316,0.11716373735962622,0.17647293236868947,0.0020663146233032333
0.63525,0.62525,0.687,0.61775,0.7240000000000001,0.5455,0.8925,0.8684999999999999,0.79675,0.74275,0.76125,0.732,0.49671630859375,0.4999481201171875,0.53104248046875,0.49992333960385016,0.4982507491423985,0.11395239713069928,0.17647318354756725,0.0027584839578791358
0.635,0.625,0.6872499999999999,0.6175,0.7234999999999999,0.5447500000000001,0.89225,0.86875,0.7957500000000001,0.742,0.7605,0.7302500000000001,0.4967254638671875,0.4999267578125,0.5310516357421875,0.5000348456346135,0.49761655860605625,0.11395239713069928,0.17647318354756725,0.0027584839578791358
0.635,0.625,0.687,0.6175,0.7232500000000001,0.5445,0.892,0.86875,0.79525,0.7415,0.7597499999999999,0.728,0.4967437744140625,0.49993896484375,0.5310577392578125,0.5001324134115316,0.49729597875398646,0.11487657018223063,0.17671150502184443,0.0027600787399137947
0.635,0.625,0.68675,0.6175,0.723,0.54425,0.8917499999999999,0.86875,0.79475,0.741,0.759,0.72575,0.496795654296875,0.49991455078125,0.531048583984375,0.5002230120615269,0.4970241828244379,0.11441448365646498,0.17659253193010274,0.002206191711407226
0.635,0.625,0.6865000000000001,0.6175,0.72275,0.544,0.8915000000000001,0.86875,0.79425,0.7404999999999999,0.75825,0.7234999999999999,0.4968536376953125,0.4999664306640625,0.531103515625,0.500341487219213,0.496863892898403,0.11442030568277285,0.17635408486638662,0.0015154614218315008
0.635,0.625,0.68625,0.6175,0.7225,0.54375,0.89125,0.86875,0.79375,0.74,0.7575,0.72125,0.49693603515625,0.500006103515625,0.5311004638671875,0.5003554254730584,0.4968360163634624,0.11486202644336034,0.1765920295723472,0.002892939831112439
0.635,0.625,0.68625,0.6175,0.7225,0.54375,0.89125,0.86875,0.79375,0.74,0.7575,0.72125,0.49697265625,0.5000274658203125,0.5311004638671875,0.500418147615363,0.4968848002587338,0.11304276781803826,0.1763544631122261,0.0017917511015517534
0.635,0.625,0.68625,0.6175,0.7225,0.54375,0.89125,0.86875,0.79375,0.74,0.7575,0.72125,0.497027587890625,0.5000396728515625,0.5311309814453125,0.5003833019807493,0.4970938740800402,0.11670165083386057,0.17671125236544385,0.0026199188890376948
0.635,0.625,0.6859999999999999,0.61775,0.7232500000000001,0.5447500000000001,0.8909999999999999,0.8684999999999999,0.7929999999999999,0.7390000000000001,0.757,0.7177500000000001,0.497021484375,0.50006103515625,0.5311248779296875,0.5001881664269133,0.497240225711355,0.11670165083386057,0.17671125236544385,0.0026199188890376948
0.635,0.625,0.6857500000000001,0.618,0.7240000000000001,0.5457500000000001,0.89075,0.8682500000000001,0.7922499999999999,0.738,0.7565000000000001,0.7142499999999999,0.4970001220703125,0.500042724609375,0.5310943603515625,0.5,0.49734476262200816,0.11441448365646498,0.17635421045582553,0.0024810632270704735
0.635,0.625,0.6855,0.6182500000000001,0.7247499999999999,0.54675,0.8905,0.868,0.7915000000000001,0.737,0.7559999999999999,0.71075,0.4970367431640625,0.5000091552734375,0.53106689453125,0.49982577183374455,0.49744929953266137,0.11486784280621848,0.17623498766272888,0.0016524534596207444
0.635,0.625,0.68525,0.6185,0.7254999999999999,0.54775,0.8902500000000001,0.86775,0.7907500000000001,0.736,0.7555,0.7072499999999999,0.4971160888671875,0.50001220703125,0.53104248046875,0.4996027597790301,0.4974980834279328,0.1157832941451874,0.1771872673668039,0.0031720588786323233
0.63575,0.62575,0.6855,0.619,0.72775,0.55125,0.89125,0.868,0.7895,0.7347499999999999,0.755,0.7020000000000001,0.49718017578125,0.5000091552734375,0.531024169921875,0.4994494389867304,0.49752595993562365,0.115321201955972,0.17671125236544385,0.001107017992862511
0.6365,0.6265,0.6859999999999999,0.61925,0.72925,0.55375,0.8925,0.8684999999999999,0.789,0.7345,0.755,0.70025,0.497259521484375,0.5000152587890625,0.531011962890625,0.4994076242251941,0.49775594114451055,0.115321201955972,0.17671125236544385,0.001107017992862511
0.63725,0.62725,0.6865000000000001,0.6195,0.73075,0.55625,0.89375,0.8690000000000001,0.7885,0.73425,0.755,0.6984999999999999,0.4972900390625,0.49998779296875,0.53101806640625,0.4993588403299226,0.4980416753687792,0.11258359230542654,0.1765920295723472,0.0017913178219809618
0.638,0.628,0.687,0.61975,0.73225,0.55875,0.895,0.8695,0.7879999999999999,0.7340000000000001,0.755,0.69675,0.49725341796875,0.4999847412109375,0.53104248046875,0.4993170255547615,0.49827862569777637,0.11304858418089643,0.17635421045582553,0.002068186947874203
0.63875,0.62875,0.6875,0.62,0.73375,0.56125,0.89625,0.87,0.7875,0.73375,0.755,0.695,0.4971893310546875,0.500018310546875,0.5310333251953125,0.49930308728729117,0.498550421627325,0.11487075381937245,0.17623486207329,0.0030370696713088647
0.63875,0.62875,0.6875,0.62,0.73375,0.56125,0.89625,0.87,0.7875,0.73375,0.755,0.695,0.4971832275390625,0.499993896484375,0.5310546875,0.49920551950356074,0.4987873719426973,0.11212150011621118,0.1758781969319883,0.0019308956165661776
0.63875,0.62875,0.6875,0.62,0.73375,0.56125,0.89625,0.87,0.7875,0.73375,0.755,0.695,0.4971282958984375,0.499957275390625,0.5310516357421875,0.49927521077278786,0.49898250749653333,0.11486493745651426,0.1763544631122261,0.0015171562583855228
0.63875,0.6295000000000001,0.6875,0.62025,0.7347499999999999,0.56275,0.8959999999999999,0.87075,0.7877500000000001,0.7345,0.7547499999999999,0.6942499999999999,0.497137451171875,0.499951171875,0.5310455322265625,0.49938671681036373,0.4991149209012525,0.11394948611754535,0.17671137795488276,0.002344488808144641
0.63875,0.63025,0.6875,0.6204999999999999,0.73575,0.5642499999999999,0.89575,0.8715,0.7879999999999999,0.7352500000000001,0.7545000000000001,0.6934999999999999,0.4971710205078125,0.49990234375,0.530999755859375,0.4995748832440895,0.4992473343059716,0.11394948611754535,0.17671137795488276,0.002344488808144641
0.63875,0.631,0.6875,0.62075,0.73675,0.56575,0.8955,0.87225,0.78825,0.736,0.75425,0.6927500000000001,0.4972412109375,0.499884033203125,0.5310028076171875,0.4997839570585834,0.4993588403299226,0.11578619949489162,0.17635395927694775,0.002479633752502576
0.63875,0.6317499999999999,0.6875,0.621,0.73775,0.56725,0.8952500000000001,0.873,0.7885,0.73675,0.754,0.6920000000000001,0.497210693359375,0.4999053955078125,0.5310028076171875,0.4999930308730773,0.4994842846145315,0.11669582880755267,0.1765924063406639,0.0019309051869984626
0.63875,0.6325,0.6875,0.62125,0.73875,0.56875,0.895,0.87375,0.78875,0.7375,0.75375,0.69125,0.4971923828125,0.4999053955078125,0.53104248046875,0.500097567776918,0.4995470067500235,0.11669582880755267,0.1765924063406639,0.0019309051869984626
0.63875,0.6325,0.6875,0.62125,0.73875,0.56875,0.895,0.87375,0.78875,0.7375,0.75375,0.69125,0.4971954345703125,0.4999603271484375,0.53101806640625,0.5001324134115316,0.49959579063848253,0.11349321595463785,0.1763547142911039,0.0019276338392350582
0.63875,0.6325,0.6875,0.62125,0.73875,0.56875,0.895,0.87375,0.78875,0.7375,0.75375,0.69125,0.4971649169921875,0.5000335693359375,0.531060791015625,0.5001533207922997,0.4996515436538642,0.11348739959177968,0.1761162672273878,0.0016498929339644368
0.63875,0.6325,0.6875,0.62125,0.73875,0.56875,0.895,0.87375,0.78875,0.7375,0.75375,0.69125,0.4971282958984375,0.5000213623046875,0.5310821533203125,0.5001254442846089,0.49967245103463237,0.11348739959177968,0.1761162672273878,0.0016498929339644368
0.63875,0.6325,0.6875,0.6214999999999999,0.73875,0.5695,0.8952500000000001,0.8740000000000001,0.7879999999999999,0.737,0.75325,0.69125,0.4971405029296875,0.500030517578125,0.5310577392578125,0.5001672590461451,0.4996445745269415,0.11349321595463785,0.17599691736732945,0.002758063728897824
0.63875,0.6325,0.6875,0.62175,0.73875,0.57025,0.8955,0.87425,0.7872499999999999,0.7365,0.75275,0.69125,0.49722900390625,0.500030517578125,0.5309906005859375,0.5001881664269133,0.4996445745269415,0.11578911050804556,0.17611601604851002,0.0026197849029856845
0.63875,0.63225,0.6877500000000001,0.622,0.7382500000000001,0.57075,0.8952500000000001,0.87425,0.7859999999999999,0.736,0.75225,0.6915,0.4972320556640625,0.4999847412109375,0.531005859375,0.5002578576961405,0.4999581852248388,0.11303695145518008,0.17647305795812832,0.0017956079857632413
0.63875,0.632,0.688,0.62225,0.73775,0.57125,0.895,0.87425,0.78475,0.7354999999999999,0.7517499999999999,0.69175,0.4972564697265625,0.499993896484375,0.530987548828125,0.5002717959499859,0.5003414871987757,0.115321201955972,0.17683035104662445,0.0015153152552293044
0.63875,0.6317499999999999,0.68825,0.6225,0.73725,0.57175,0.8947499999999999,0.87425,0.7835,0.735,0.75125,0.6920000000000001,0.49725341796875,0.5000244140625,0.5309783935546875,0.5002787650769086,0.5006899435449115,0.115321201955972,0.17683035104662445,0.0015153152552293044
0.6385000000000001,0.63125,0.68825,0.62225,0.736,0.57025,0.89375,0.8734999999999999,0.784,0.7347499999999999,0.7509999999999999,0.6940000000000001,0.4972015380859375,0.5000335693359375,0.530999755859375,0.5002857342038314,0.5009826468756655,0.11623956430809487,0.176354588701665,0.0005515944749542923
0.63825,0.63075,0.68825,0.622,0.7347499999999999,0.56875,0.89275,0.87275,0.7845,0.7345,0.75075,0.696,0.4970916748046875,0.5000213623046875,0.53104248046875,0.5002787650769086,0.5012614119525741,0.11623956430809487,0.176354588701665,0.0005515944749542923
0.638,0.6305,0.688,0.62175,0.7340000000000001,0.5675,0.89225,0.87225,0.7855,0.73425,0.7505,0.6977500000000001,0.4970428466796875,0.5000640869140625,0.5310333251953125,0.5002857342038314,0.5011777824431265,0.11485911543020638,0.17599704295676832,0.0012425927366340429
0.63775,0.63025,0.6877500000000001,0.6214999999999999,0.7332500000000001,0.56625,0.8917499999999999,0.87175,0.7865000000000001,0.7340000000000001,0.7502500000000001,0.6995,0.496990966796875,0.5000732421875,0.531060791015625,0.5002230120615269,0.5010871837999435,0.11349031060493363,0.176354588701665,0.0020704612306012126
0.6375,0.63,0.6875,0.62125,0.7325,0.565,0.89125,0.87125,0.7875,0.73375,0.75,0.70125,0.4969696044921875,0.50001220703125,0.5310577392578125,0.500195135553836,0.5009965851567607,0.11578619949489162,0.17599754679204666,0.0015140197667134223
0.6375,0.63,0.6875,0.62125,0.7325,0.565,0.89125,0.87125,0.7875,0.73375,0.75,0.70125,0.49700927734375,0.5000335693359375,0.531060791015625,0.5001045369038407,0.5010523381857673,0.11258649765513076,0.17671150502184443,0.001374890042367075
0.6375,0.63,0.6875,0.62125,0.7325,0.565,0.89125,0.87125,0.7875,0.73375,0.75,0.70125,0.4970306396484375,0.50006103515625,0.5310455322265625,0.4999930308730773,0.5011080912011491,0.11258649765513076,0.17671150502184443,0.001374890042367075
0.63725,0.62925,0.6872499999999999,0.62075,0.73175,0.56325,0.89075,0.87075,0.7875,0.7334999999999999,0.7505,0.7045,0.49700927734375,0.500030517578125,0.5311248779296875,0.4998606174615457,0.5012405046058682,0.11257485926596472,0.1765924063406639,0.0016520236602071466
0.637,0.6285000000000001,0.687,0.62025,0.731,0.5615,0.8902500000000001,0.8702500000000001,0.7875,0.7332500000000001,0.7509999999999999,0.7077500000000001,0.4969757080078125,0.4999908447265625,0.5311279296875,0.49988152484231385,0.5011986898443319,0.11441157830676071,0.17635408486638662,0.0017907540365153542
0.6367499999999999,0.62775,0.68675,0.61975,0.7302500000000001,0.55975,0.8897499999999999,0.8697499999999999,0.7875,0.733,0.7515000000000001,0.711,0.496929931640625,0.5000396728515625,0.531134033203125,0.49980486444616395,0.5011289985614799,0.11441157830676071,0.17635408486638662,0.0017907540365153542
0.6365,0.627,0.6865000000000001,0.61925,0.7295,0.5579999999999999,0.88925,0.86925,0.7875,0.73275,0.752,0.7142499999999999,0.496868896484375,0.5000274658203125,0.53109130859375,0.49974214230385955,0.5008641717247918,0.11441448365646498,0.17623549002048444,0.00261891225356901
0.63625,0.62625,0.68625,0.61875,0.72875,0.55625,0.88875,0.86875,0.7875,0.7325,0.7525,0.7175,0.4968414306640625,0.5000579833984375,0.531097412109375,0.4997212349230914,0.5004878388709652,0.11440575628045282,0.17611676958514336,0.0013817337714912726
0.6365,0.62575,0.68625,0.6182500000000001,0.7295,0.555,0.8885,0.86875,0.7872499999999999,0.73275,0.75275,0.7195,0.4968658447265625,0.50008544921875,0.531060791015625,0.4997212349230914,0.5001672590393327,0.11440575628045282,0.17611676958514336,0.0013817337714912726
0.6367499999999999,0.62525,0.68625,0.61775,0.7302500000000001,0.55375,0.88825,0.86875,0.787,0.733,0.753,0.7215,0.4968536376953125,0.5000885009765625,0.5310638427734375,0.4996306362730961,0.49995121610472854,0.11394948611754535,0.1763547142911039,0.0015198907919015824
0.637,0.62475,0.68625,0.61725,0.731,0.5525,0.888,0.86875,0.78675,0.7332500000000001,0.75325,0.7234999999999999,0.4969207763671875,0.50009765625,0.5310760498046875,0.49960972889232796,0.49980486444616395,0.11439993991759466,0.1763543360452644,0.0015173302662452755
0.63725,0.62425,0.68625,0.61675,0.73175,0.55125,0.88775,0.86875,0.7865000000000001,0.7334999999999999,0.7535,0.7254999999999999,0.4969635009765625,0.5000885009765625,0.5311126708984375,0.4996236671461734,0.49979789531924124,0.11486493745651426,0.17647305795812832,0.0017910533300341308
0.6375,0.62375,0.68625,0.61625,0.7325,0.55,0.8875,0.86875,0.78625,0.73375,0.75375,0.7275,0.4969451904296875,0.500054931640625,0.5311248779296875,0.49960972889232796,0.49983971008077754,0.11486493745651426,0.17647305795812832,0.0017910533300341308
0.6375,0.62375,0.68625,0.61625,0.7325,0.55,0.8875,0.86875,0.78625,0.73375,0.75375,0.7275,0.4969329833984375,0.5000274658203125,0.5310546875,0.4995818523846371,0.49973517317693683,0.1144028452672989,0.17611664399570445,0.0012380285104726474
0.6375,0.62375,0.68625,0.61625,0.7325,0.55,0.8875,0.86875,0.78625,0.73375,0.75375,0.7275,0.4969390869140625,0.5000335693359375,0.5309844970703125,0.4995748832577144,0.49958185237782465,0.11486493745651426,0.1765924063406639,0.0009651502548429046
0.6375,0.62375,0.68625,0.61625,0.7325,0.55,0.8875,0.86875,0.78625,0.73375,0.75375,0.7275,0.496875,0.4999847412109375,0.5309417724609375,0.4995748832577144,0.49935187119618746,0.11486493745651426,0.1765924063406639,0.0009651502548429046
0.6375,0.6235,0.6859999999999999,0.6164999999999999,0.7325,0.54975,0.88775,0.86875,0.78675,0.7345,0.75325,0.7282500000000001,0.496844482421875,0.499969482421875,0.5309417724609375,0.49956791413079166,0.4990103839905993,0.11349321595463785,0.17623536443104554,0.002757044912878953
0.6375,0.6232500000000001,0.6857500000000001,0.61675,0.7325,0.5495,0.888,0.86875,0.7872499999999999,0.7352500000000001,0.75275,0.7290000000000001,0.496868896484375,0.4999664306640625,0.5309417724609375,0.49960275976540525,0.4987176806734701,0.11395821349355746,0.17623511325216776,0.0015127477692586083
0.6375,0.623,0.6855,0.617,0.7325,0.54925,0.88825,0.86875,0.7877500000000001,0.736,0.75225,0.7297499999999999,0.4968231201171875,0.49996337890625,0.5309722900390625,0.49953306849617807,0.4983343787131581,0.11120314342753802,0.1761162672273878,0.0011060174476689123
0.6375,0.62275,0.68525,0.61725,0.7325,0.5489999999999999,0.8885,0.86875,0.78825,0.73675,0.7517499999999999,0.7304999999999999,0.496820068359375,0.499951171875,0.5310028076171875,0.4995051919884872,0.4978813854427443,0.11578619949489162,0.17694957383972107,0.0012393118184383484
0.6375,0.6225,0.685,0.6175,0.7325,0.54875,0.88875,0.86875,0.78875,0.7375,0.75125,0.73125,0.4968170166015625,0.4999481201171875,0.5310150146484375,0.49947034635387366,0.4974980834279328,0.1130398568048843,0.17635408486638662,0.002062904069252017
0.63775,0.62275,0.68525,0.61775,0.732,0.5489999999999999,0.889,0.86925,0.7872499999999999,0.7365,0.7509999999999999,0.7282500000000001,0.4968536376953125,0.49996337890625,0.531011962890625,0.4995888215115598,0.49713568880070186,0.11441739466961891,0.17599716854620723,0.0015170527237089648
0.638,0.623,0.6855,0.618,0.7315,0.54925,0.88925,0.8697499999999999,0.7857500000000001,0.7354999999999999,0.75075,0.7252500000000001,0.496942138671875,0.4999481201171875,0.53099365234375,0.4996933584154005,0.4968708619640138,0.11257777027911865,0.17587807134254943,0.0019304753875848705
0.63825,0.6232500000000001,0.6857500000000001,0.6182500000000001,0.731,0.5495,0.8895000000000001,0.8702500000000001,0.78425,0.7345,0.7505,0.72225,0.497076416015625,0.499951171875,0.5310272216796875,0.4998606174615457,0.49684298542907324,0.11257777027911865,0.17587807134254943,0.0019304753875848705
0.6385000000000001,0.6235,0.6859999999999999,0.6185,0.7304999999999999,0.54975,0.8897499999999999,0.87075,0.7827500000000001,0.7334999999999999,0.7502500000000001,0.71925,0.4971343994140625,0.49996337890625,0.5310455322265625,0.499951216111541,0.4969963062349978,0.11669582880755267,0.1761162672273878,0.0020639002642491174
0.63875,0.62375,0.68625,0.61875,0.73,0.55,0.89,0.87125,0.78125,0.7325,0.75,0.71625,0.4971893310546875,0.4999664306640625,0.5311065673828125,0.5000557530153817,0.4972193183237745,0.11349903798094574,0.17611639281682667,0.002893928195755852
0.63875,0.62375,0.68625,0.61875,0.73,0.55,0.89,0.87125,0.78125,0.7325,0.75,0.71625,0.497186279296875,0.4999481201171875,0.531146240234375,0.5000139382538454,0.49751202166815334,0.11349903798094574,0.17611639281682667,0.002893928195755852
0.63875,0.62375,0.68625,0.61875,0.73,0.55,0.89,0.87125,0.78125,0.7325,0.75,0.71625,0.49715576171875,0.499969482421875,0.53115234375,0.49998606174615456,0.4977489719699008,0.11669582880755267,0.17706842134202389,0.0011080141878596118
0.63875,0.62375,0.68625,0.61875,0.73,0.55,0.89,0.87125,0.78125,0.7325,0.75,0.71625,0.4971435546875,0.4999755859375,0.5311187744140625,0.5,0.4979719840314277,0.11212441112936511,0.1761161416379489,0.0013791767259921602
0.63875,0.62425,0.6865000000000001,0.619,0.73125,0.5525,0.8902500000000001,0.87125,0.7805,0.73175,0.7497499999999999,0.7125,0.4971832275390625,0.499951171875,0.5311126708984375,0.5000418147615363,0.49813924307757285,0.11166814096645762,0.176354588701665,0.0019298898511367919
0.63875,0.62475,0.68675,0.61925,0.7325,0.555,0.8905,0.87125,0.7797499999999999,0.731,0.7495,0.70875,0.497216796875,0.499957275390625,0.53109130859375,0.5000905986499953,0.49822984172075574,0.11166814096645762,0.176354588701665,0.0019298898511367919
0.63875,0.62525,0.687,0.6195,0.73375,0.5575,0.89075,0.87125,0.779,0.7302500000000001,0.74925,0.705,0.497259521484375,0.499969482421875,0.5310333251953125,0.5001533207922997,0.4983901316467906,0.1144028452672989,0.17778313310845498,0.0005533041021763913
0.63875,0.62575,0.6872499999999999,0.61975,0.735,0.56,0.8909999999999999,0.87125,0.77825,0.7295,0.7490000000000001,0.70125,0.4972625732421875,0.499993896484375,0.5310821533203125,0.5001602899192225,0.4984110390343712,0.1144028452672989,0.17778313310845498,0.0005533041021763913
0.63875,0.62625,0.6875,0.62,0.73625,0.5625,0.89125,0.87125,0.7775,0.72875,0.74875,0.6975,0.4972564697265625,0.499993896484375,0.5311187744140625,0.5001811972999906,0.49843194642195177,0.1130398568048843,0.17540218340815114,0.0020666260973721956
0.639,0.6267499999999999,0.6875,0.6204999999999999,0.7365,0.5642499999999999,0.8915000000000001,0.87175,0.777,0.72875,0.74875,0.6955,0.497247314453125,0.500006103515625,0.531195068359375,0.5001672590461451,0.4984946685846935,0.11623956430809487,0.17647368590532275,0.001510885015119924
0.63925,0.62725,0.6875,0.621,0.73675,0.5660000000000001,0.8917499999999999,0.87225,0.7765000000000001,0.72875,0.74875,0.6934999999999999,0.49730224609375,0.500030517578125,0.531201171875,0.4999930308730773,0.498675865898309,0.11532411296912597,0.17694969942915997,0.001794589169744371
0.6395000000000001,0.62775,0.6875,0.6214999999999999,0.737,0.56775,0.892,0.87275,0.7759999999999999,0.72875,0.74875,0.6915,0.497265625,0.5000396728515625,0.531256103515625,0.4997630496846277,0.4987664645414918,0.11532411296912597,0.17694969942915997,0.001794589169744371
0.63975,0.62825,0.6875,0.622,0.73725,0.5695,0.89225,0.8732500000000001,0.7755,0.72875,0.74875,0.6895,0.4972747802734375,0.500018310546875,0.53125,0.4995470067500235,0.498968569229063,0.11395239713069928,0.17671137795488276,0.0020663276738927126
0.6402500000000001,0.6295000000000001,0.6877500000000001,0.62275,0.73875,0.57175,0.89325,0.8740000000000001,0.7747499999999999,0.7290000000000001,0.7484999999999999,0.6875,0.4972900390625,0.4999664306640625,0.5312164306640625,0.49933793294915446,0.49917764303674445,0.11486493745651426,0.1767117562007222,0.002341498483074737
0.6405,0.63025,0.688,0.623,0.74,0.57225,0.894,0.87425,0.7745000000000001,0.72925,0.7482500000000001,0.6875,0.4972900390625,0.499945068359375,0.5311767578125,0.49923339604531375,0.49945640810684067,0.11486493745651426,0.1767117562007222,0.002341498483074737
0.64075,0.631,0.68825,0.6232500000000001,0.74125,0.57275,0.8947499999999999,0.8745,0.77425,0.7295,0.748,0.6875,0.4972198486328125,0.49991455078125,0.5312103271484375,0.4992543034260819,0.49965851278078693,0.11440575628045282,0.1767117562007222,0.002347473042939455
0.6409999999999999,0.632,0.68875,0.6235,0.74275,0.5742499999999999,0.8959999999999999,0.8755,0.7735,0.73,0.74775,0.688,0.497247314453125,0.49990234375,0.5311798095703125,0.49926824167992734,0.49988152484231385,0.11578619949489162,0.17623523884160666,0.0019294870229414577
0.64125,0.633,0.6892499999999999,0.62375,0.74425,0.57575,0.89725,0.8765000000000001,0.77275,0.7304999999999999,0.7475,0.6884999999999999,0.4972503662109375,0.499896240234375,0.5310821533203125,0.4992821799337728,0.4999930308730773,0.1157832941451874,0.176592280751225,0.002478780243950477
0.64125,0.63325,0.6895,0.62375,0.7445,0.57675,0.89775,0.87725,0.77225,0.73075,0.7475,0.6890000000000001,0.4972259521484375,0.4999114990234375,0.530987548828125,0.49926824166630246,0.49998606174615456,0.1157832941451874,0.176592280751225,0.002478780243950477
0.64125,0.6335000000000001,0.68975,0.62375,0.7447499999999999,0.57775,0.89825,0.878,0.7717499999999999,0.731,0.7475,0.6895,0.4972625732421875,0.49990234375,0.5309417724609375,0.49920551952399805,0.4998466792145127,0.11394366975468717,0.17706879811034054,0.002480341094452484
0.64125,0.63375,0.69,0.62375,0.745,0.57875,0.89875,0.87875,0.77125,0.73125,0.7475,0.69,0.4973236083984375,0.4998565673828125,0.5309173583984375,0.4993309638086069,0.49978395707220824,0.1130456788311922,0.1759972941356461,0.002206765067305123
0.64125,0.63375,0.69,0.62375,0.745,0.57875,0.89875,0.87875,0.77125,0.73125,0.7475,0.69,0.4973236083984375,0.499847412109375,0.530938720703125,0.4995609449970565,0.49979092619913096,0.11578619949489162,0.17647356031588388,0.0017923183671745555
0.64125,0.63375,0.69,0.62375,0.745,0.57875,0.89875,0.87875,0.77125,0.73125,0.7475,0.69,0.4973175048828125,0.49984130859375,0.5310302734375,0.4998327409470424,0.4998954631029717,0.1157832941451874,0.1754024345870289,0.0012440100306517546
0.64125,0.63375,0.69,0.6235,0.745,0.57825,0.899,0.87925,0.7715000000000001,0.73075,0.74725,0.69,0.497308349609375,0.4998992919921875,0.5311737060546875,0.5000278765076909,0.5000696912760396,0.1157832941451874,0.1754024345870289,0.0012440100306517546
0.64125,0.63375,0.69,0.6232500000000001,0.745,0.57775,0.89925,0.8797499999999999,0.7717499999999999,0.7302500000000001,0.747,0.69,0.49725341796875,0.4999603271484375,0.531134033203125,0.49994424699824314,0.5002090738076814,0.115321201955972,0.1759972941356461,0.0031673519660259304
0.64125,0.63375,0.69,0.623,0.745,0.57725,0.8995000000000001,0.8802500000000001,0.772,0.7297499999999999,0.74675,0.69,0.4972076416015625,0.5000091552734375,0.5311370849609375,0.4996376054204561,0.5002021046807588,0.11440575628045282,0.17623561560992332,0.0017939035787769343
0.64125,0.63375,0.69,0.62275,0.745,0.57675,0.8997499999999999,0.88075,0.77225,0.72925,0.7465,0.69,0.497216796875,0.5,0.5310699462890625,0.4992473343195965,0.5002021046807588,0.11440575628045282,0.17623561560992332,0.0017939035787769343
0.64125,0.63375,0.69,0.6225,0.745,0.57625,0.9,0.88125,0.7725,0.72875,0.74625,0.69,0.4972259521484375,0.4999908447265625,0.5310028076171875,0.49885706321873685,0.5002021046807588,0.11441157830676071,0.17671150502184443,0.0020700470918949905
0.64125,0.63375,0.69,0.6225,0.745,0.57625,0.9,0.88125,0.7725,0.72875,0.74625,0.69,0.497296142578125,0.49993896484375,0.53089599609375,0.4985852672551261,0.5002927033375665,0.1144028452672989,0.1755212806118089,0.001789890957530965
0.6409999999999999,0.6335000000000001,0.68975,0.6225,0.7445,0.575,0.8997499999999999,0.8809999999999999,0.7725,0.7290000000000001,0.7465,0.69025,0.4972900390625,0.4998382568359375,0.530950927734375,0.4982995330581072,0.5005644992739275,0.1144028452672989,0.1755212806118089,0.001789890957530965
0.64075,0.63325,0.6895,0.6225,0.7440000000000001,0.57375,0.8995000000000001,0.88075,0.7725,0.72925,0.74675,0.6905,0.497357177734375,0.4997406005859375,0.5308197021484375,0.4981601505196529,0.5008084187094101,0.11395239713069928,0.17694969942915997,0.002477917164966088
0.6405,0.633,0.6892499999999999,0.6225,0.7434999999999999,0.5725,0.89925,0.8805,0.7725,0.7295,0.747,0.69075,0.49737548828125,0.49969482421875,0.530926513671875,0.4980834901166906,0.501080214659396,0.11395239713069928,0.17694969942915997,0.002477917164966088
0.6402500000000001,0.63275,0.6890000000000001,0.6225,0.743,0.57125,0.899,0.8802500000000001,0.7725,0.7297499999999999,0.74725,0.691,0.4974029541015625,0.4996826171875,0.530938720703125,0.49801379883383856,0.5015889609111294,0.11303404044202614,0.17730661574933942,0.0002762922898381539
0.64,0.6325,0.68875,0.6225,0.7425,0.57,0.89875,0.88,0.7725,0.73,0.7475,0.69125,0.497369384765625,0.4996612548828125,0.53101806640625,0.4978604780551637,0.5022022440803283,0.11303404044202614,0.17730661574933942,0.0002762922898381539
0.64,0.6325,0.68875,0.6225,0.7425,0.57,0.89875,0.88,0.7725,0.73,0.7475,0.69125,0.497430419921875,0.4997161865234375,0.5309661865234375,0.4978116941598923,0.5028364346643576,0.11532411296912597,0.1768306022255022,0.002338906636003674
0.64,0.6325,0.68875,0.6225,0.7425,0.57,0.89875,0.88,0.7725,0.73,0.7475,0.69125,0.497369384765625,0.499749755859375,0.530987548828125,0.4974702069202419,0.5035542546897102,0.11257777027911865,0.17694969942915997,0.0009684494438638754
0.6395000000000001,0.632,0.68875,0.622,0.7425,0.56725,0.899,0.87925,0.77325,0.7297499999999999,0.7482500000000001,0.69375,0.4972747802734375,0.4997161865234375,0.5309112548828125,0.49705902845223904,0.5041605687387989,0.11624538067095305,0.1765929086984194,0.0019307616305141674
0.639,0.6315,0.68875,0.6214999999999999,0.7425,0.5645,0.89925,0.8785,0.774,0.7295,0.7490000000000001,0.69625,0.497161865234375,0.4996734619140625,0.5309844970703125,0.4965293748333624,0.5045438707263606,0.11624538067095305,0.1765929086984194,0.0019307616305141674
0.6385000000000001,0.631,0.68875,0.621,0.7425,0.56175,0.8995000000000001,0.87775,0.7747499999999999,0.72925,0.7497499999999999,0.69875,0.4970458984375,0.4996673583984375,0.530999755859375,0.49597881382690523,0.504704160597896,0.11532411296912597,0.17706892369977942,0.0015150281422607087
0.638,0.6305,0.68875,0.6204999999999999,0.7425,0.5589999999999999,0.8997499999999999,0.877,0.7755,0.7290000000000001,0.7505,0.70125,0.4968841552734375,0.4996124267578125,0.5310028076171875,0.49548400580858,0.5044184264008771,0.11486493745651426,0.17694982501859885,0.0019270396023939886
0.63725,0.629,0.6890000000000001,0.6195,0.74175,0.55525,0.9017499999999999,0.8759999999999999,0.7795000000000001,0.73,0.7525,0.7090000000000001,0.4967376708984375,0.4998748779296875,0.5312255859375,0.49435500736972393,0.5045369016062503,0.11533284034513808,0.17706854693146276,0.002064321363269728
0.637,0.628,0.6892499999999999,0.619,0.741,0.55425,0.9035,0.87575,0.7827500000000001,0.73125,0.75375,0.7142499999999999,0.4966644287109375,0.4998687744140625,0.5312835693359375,0.492550003517178,0.504829604977879,0.1144086672936068,0.1768306022255022,0.002343183749196474
0.6367499999999999,0.627,0.6895,0.6185,0.7402500000000001,0.55325,0.9052500000000001,0.8755,0.7859999999999999,0.7325,0.755,0.7195,0.49656982421875,0.4997039794921875,0.531256103515625,0.49067530846352925,0.5051083701092871,0.1144086672936068,0.1768306022255022,0.002343183749196474
0.63575,0.626,0.6892499999999999,0.6175,0.73875,0.55125,0.9095,0.875,0.7909999999999999,0.73375,0.75725,0.725,0.496624755859375,0.4997894287109375,0.5317138671875,0.48947661860557246,0.5062513070063616,0.1157832941451874,0.17647356031588388,0.0030319077281492097
0.63475,0.625,0.6890000000000001,0.6164999999999999,0.73725,0.54925,0.91375,0.8745,0.7959999999999999,0.735,0.7595000000000001,0.7304999999999999,0.4966644287109375,0.499798583984375,0.532293701171875,0.4883754965381586,0.5076869471660658,0.1157832941451874,0.17647356031588388,0.0030319077281492097
0.634,0.625,0.6884999999999999,0.616,0.7365,0.54825,0.91625,0.87425,0.7977500000000001,0.735,0.7605,0.73075,0.4969268798828125,0.499560546875,0.5325897216796875,0.48790856489127554,0.509059865081279,0.11303695145518008,0.17623561560992332,0.0009675863648794863
0.63325,0.625,0.688,0.6154999999999999,0.73575,0.54725,0.91875,0.8740000000000001,0.7995,0.735,0.7615000000000001,0.731,0.49681396484375,0.4992767333984375,0.5324127197265625,0.48831974335927847,0.5101888636291341,0.11349031060493363,0.17647356031588388,0.0011029749202410846
0.6325,0.625,0.6875,0.615,0.735,0.54625,0.92125,0.87375,0.80125,0.735,0.7625,0.73125,0.4965972900390625,0.4992706298828125,0.5322784423828125,0.49034775916435236,0.5106697332982397,0.1153270239822799,0.17659265751954162,0.0031734979236325055
0.6325,0.625,0.6875,0.615,0.735,0.54625,0.92125,0.87375,0.80125,0.735,0.7625,0.73125,0.4963165283203125,0.4991607666015625,0.5318939208984375,0.49261969454796994,0.5101191722100333,0.1153270239822799,0.17659265751954162,0.0031734979236325055
0.6325,0.625,0.6875,0.615,0.735,0.54625,0.92125,0.87375,0.80125,0.735,0.7625,0.73125,0.4960418701171875,0.49898681640625,0.532159423828125,0.4955188513478195,0.5098682835590663,0.1144028452672989,0.17683047663606333,0.0027553283253424652
0.63225,0.62475,0.6872499999999999,0.613,0.73425,0.5455,0.9209999999999999,0.872,0.80175,0.735,0.764,0.73425,0.496771240234375,0.50133056640625,0.5441192626953125,0.5083629525184438,0.5284549458045033,0.11303404044202614,0.1763544631122261,0.0027536334887884434
0.632,0.6245,0.687,0.611,0.7334999999999999,0.5447500000000001,0.9207500000000001,0.8702500000000001,0.8022499999999999,0.735,0.7655,0.73725,0.4978759765625,0.50401611328125,0.55665283203125,0.5210397945884234,0.5471182683166538,0.11303404044202614,0.1763544631122261,0.0027536334887884434
0.6317499999999999,0.62425,0.68675,0.609,0.73275,0.544,0.9205,0.8684999999999999,0.8027500000000001,0.735,0.767,0.7402500000000001,0.5003021240234375,0.50723876953125,0.57100830078125,0.5320301080112303,0.5743466480007571,0.11486493745651426,0.1767118817901611,0.0006895774875048445
0.6315,0.624,0.6865000000000001,0.607,0.732,0.54325,0.92025,0.86675,0.80325,0.735,0.7685,0.7432500000000001,0.496441650390625,0.5088714599609375,0.5870635986328125,0.5586312650937381,0.5935605316011139,0.11486493745651426,0.1767118817901611,0.0006895774875048445
0.634,0.627,0.6872499999999999,0.60775,0.7347499999999999,0.5479999999999999,0.9227500000000001,0.86775,0.8072499999999999,0.74125,0.772,0.752,0.4926239013671875,0.5106781005859375,0.602423095703125,0.5846052007600139,0.6124747427642314,0.11349031060493363,0.1765929086984194,0.002071055467442277
0.6367499999999999,0.63025,0.68825,0.6104999999999999,0.7382500000000001,0.5535,0.9255,0.8704999999999999,0.8107500000000001,0.7475,0.774,0.75775,0.4563385009765625,0.5078369140625,0.5941864013671875,0.6341278150242193,0.5638790206572012,0.11394658076784112,0.1765929086984194,0.0023400472575243734
0.6395000000000001,0.6335000000000001,0.6892499999999999,0.6132500000000001,0.74175,0.5589999999999999,0.92825,0.8732500000000001,0.8142499999999999,0.75375,0.7759999999999999,0.7635,0.43687744140625,0.4880889892578125,0.569122314453125,0.6913304078248756,0.49327479642310457,0.11394658076784112,0.1765929086984194,0.0023400472575243734
0.64225,0.6367499999999999,0.69025,0.616,0.7452500000000001,0.5645,0.9309999999999999,0.8759999999999999,0.8177500000000001,0.76,0.778,0.76925,0.404339599609375,0.462127685546875,0.5431396484375,0.7430343604440628,0.42823193385197533,0.11485911543020638,0.17671200737959997,0.002481042346127301
0.645,0.64,0.69125,0.61875,0.74875,0.57,0.93375,0.87875,0.82125,0.76625,0.78,0.775,0.3843963623046875,0.4356292724609375,0.5079742431640625,0.7361837086722213,0.39395079829432866,0.11485911543020638,0.17671200737959997,0.002481042346127301
0.645,0.64,0.69125,0.61875,0.74875,0.57,0.93375,0.87875,0.82125,0.76625,0.78,0.775,0.368402099609375,0.4137908935546875,0.4730010986328125,0.6942713798903816,0.36346086756464124,0.11303404044202614,0.1765930357653811,0.0026143575978399
0.64575,0.64075,0.6920000000000001,0.6195,0.7497499999999999,0.57125,0.93675,0.885,0.8240000000000001,0.77075,0.782,0.7815000000000001,0.39049072265625,0.4159454345703125,0.468353271484375,0.5920970131079866,0.3971496265504272,0.11577165575602133,0.17718827208231497,0.0019271735884460036
0.6465000000000001,0.6415000000000001,0.6927500000000001,0.62025,0.75075,0.5725,0.93975,0.89125,0.82675,0.7752500000000001,0.784,0.7879999999999999,0.3957550048828125,0.4350067138671875,0.4805328369140625,0.4822426677891407,0.4528468876632796,0.11577165575602133,0.17718827208231497,0.0019271735884460036
0.64725,0.64225,0.6934999999999999,0.621,0.7517499999999999,0.57375,0.9427500000000001,0.8975,0.8295,0.7797499999999999,0.7859999999999999,0.7945,0.41607666015625,0.460101318359375,0.492352294921875,0.38211721959419465,0.5013032271501062,0.1144086672936068,0.17623536443104554,0.002620339118019007
0.648,0.643,0.6942499999999999,0.62175,0.75275,0.575,0.94575,0.90375,0.8322499999999999,0.78425,0.7879999999999999,0.8009999999999999,0.4335479736328125,0.48690185546875,0.51279296875,0.33046205054328215,0.5316816510860376,0.1144086672936068,0.17623536443104554,0.002620339118019007
0.64875,0.64375,0.695,0.6225,0.75375,0.57625,0.94875,0.91,0.835,0.78875,0.79,0.8075,0.448876953125,0.5082611083984375,0.5338409423828125,0.3198062560302577,0.5616279892481347,0.11486493745651426,0.17647356031588388,0.0017907636069476392
0.64875,0.64375,0.695,0.6225,0.75375,0.57625,0.94875,0.91,0.835,0.78875,0.79,0.8075,0.4590240478515625,0.507000732421875,0.53717041015625,0.3408878625121826,0.5781796662413906,0.11395239713069928,0.17647343472644497,0.0033059292154175475
0.6495000000000001,0.6445000000000001,0.69575,0.62375,0.7545000000000001,0.5770000000000001,0.94875,0.9109999999999999,0.8365,0.79175,0.78975,0.8079999999999999,0.4777191162109375,0.5051300048828125,0.53966064453125,0.37345459114373275,0.5964039329331055,0.11486493745651426,0.1767117562007222,0.002482203848591173
0.6502500000000001,0.6452500000000001,0.6965,0.625,0.7552500000000001,0.57775,0.94875,0.912,0.838,0.79475,0.7895,0.8085,0.495159912109375,0.5029388427734375,0.54102783203125,0.4037354488151065,0.6071363894568267,0.11395239713069928,0.17683047663606333,0.0023466378052126274
0.6509999999999999,0.6459999999999999,0.6972499999999999,0.62625,0.7559999999999999,0.5785,0.94875,0.9129999999999999,0.8395,0.7977500000000001,0.78925,0.809,0.5117340087890625,0.501416015625,0.5399261474609375,0.4293678981954727,0.6108927495017266,0.11395239713069928,0.17683047663606333,0.0023466378052126274
0.6517499999999999,0.6467499999999999,0.698,0.6275,0.7567499999999999,0.5792499999999999,0.94875,0.914,0.841,0.8007500000000001,0.789,0.8095,0.5271331787109375,0.5008270263671875,0.5376861572265625,0.45004529690998973,0.6097707195834866,0.11349321595463785,0.17659265751954162,0.0017900345140152655
0.6525,0.6475,0.69875,0.62875,0.7575,0.58,0.94875,0.915,0.8425,0.80375,0.78875,0.81,0.541949462890625,0.50128173828125,0.53341064453125,0.467837478699862,0.6026203939574193,0.11349321595463785,0.17659265751954162,0.0017900345140152655
0.6525,0.6475,0.69875,0.62875,0.7575,0.58,0.94875,0.915,0.8425,0.80375,0.78875,0.81,0.548809814453125,0.5023193359375,0.528717041015625,0.47568471546496577,0.5896996327380793,0.11532993499543386,0.17599704295676832,0.001382600330632856
0.6525,0.6475,0.69875,0.62875,0.7575,0.58,0.94875,0.915,0.8425,0.80375,0.78875,0.81,0.55421142578125,0.5030548095703125,0.523260498046875,0.48252839838919437,0.574332706708566,0.11670455618356478,0.17647293236868947,0.0027553283253424652
0.65275,0.64775,0.6984999999999999,0.629,0.75775,0.5802499999999999,0.94875,0.91525,0.8427500000000001,0.8029999999999999,0.78875,0.80975,0.556951904296875,0.5033721923828125,0.5189208984375,0.48762979943287066,0.5614607281855091,0.11669582880755267,0.17635395927694775,0.003444937134262066
0.653,0.648,0.69825,0.62925,0.758,0.5805,0.94875,0.9155,0.843,0.8022499999999999,0.78875,0.8095,0.5569244384765625,0.503857421875,0.5136077880859375,0.49019443824942877,0.547215833382223,0.11669582880755267,0.17635395927694775,0.003444937134262066
0.65325,0.64825,0.698,0.6295000000000001,0.75825,0.58075,0.94875,0.9157500000000001,0.84325,0.8015000000000001,0.78875,0.80925,0.5521636962890625,0.5050262451171875,0.509307861328125,0.48921179138738813,0.537542686167235,0.11715792099676803,0.17694932266084332,0.001650758623066722
0.6535,0.6485,0.6977500000000001,0.62975,0.7585,0.581,0.94875,0.9159999999999999,0.8434999999999999,0.8007500000000001,0.78875,0.809,0.5451812744140625,0.5075958251953125,0.5058563232421875,0.4859293328179747,0.5357167750633571,0.11715792099676803,0.1762347364838511,0.0008284322794327772
0.65375,0.64875,0.6975,0.63,0.75875,0.58125,0.94875,0.91625,0.84375,0.8,0.78875,0.80875,0.5391815185546875,0.508294677734375,0.503131103515625,0.4856435986209558,0.5476061062883777,0.11715792099676803,0.1762347364838511,0.0008284322794327772
0.65375,0.64875,0.6975,0.63,0.75875,0.58125,0.94875,0.91625,0.84375,0.8,0.78875,0.80875,0.5638427734375,0.516583251953125,0.50306396484375,0.49553278948585355,0.5204125731313168,0.11533284034513808,0.17623486207329,0.00220792656976899
0.653,0.64775,0.6975,0.62925,0.758,0.581,0.95,0.91675,0.8447499999999999,0.80175,0.7905,0.8107500000000001,0.5906402587890625,0.5245513916015625,0.50430908203125,0.5069760957158287,0.49611122716350003,0.11486784280621848,0.17671137795488276,0.001097578936510056
0.65225,0.6467499999999999,0.6975,0.6285000000000001,0.75725,0.58075,0.95125,0.9172499999999999,0.84575,0.8035,0.7922499999999999,0.8127500000000001,0.5973236083984375,0.5295501708984375,0.513739013671875,0.5176667363198998,0.4288243082438571,0.1130398568048843,0.17718714177736497,0.0016549017502075066
0.6515000000000001,0.64575,0.6975,0.62775,0.7565000000000001,0.5805,0.9525,0.9177500000000001,0.84675,0.80525,0.794,0.81475,0.589642333984375,0.5518890380859375,0.5677215576171875,0.5500940840752295,0.3441633540869652,0.11258359230542654,0.17706804309618443,0.0020623272331969245
0.65075,0.6447499999999999,0.6975,0.627,0.75575,0.5802499999999999,0.95375,0.91825,0.84775,0.807,0.7957500000000001,0.81675,0.5840301513671875,0.5437713623046875,0.574981689453125,0.5682904743955023,0.2619834103952975,0.11532411296912597,0.17682997427830777,0.003309218834006234
0.65,0.64375,0.6975,0.62625,0.755,0.58,0.955,0.91875,0.84875,0.80875,0.7975,0.81875,0.5499237060546875,0.5447845458984375,0.5820220947265625,0.5574534822146158,0.21808488014754934,0.11532411296912597,0.17682997427830777,0.003309218834006234
0.65,0.64375,0.6975,0.62625,0.755,0.58,0.955,0.91875,0.84875,0.80875,0.7975,0.81875,0.518792724609375,0.538995361328125,0.6044219970703125,0.5454317384159931,0.17733639502362086,0.11395239713069928,0.17647293236868947,0.002068320933926218
0.65,0.64375,0.6975,0.62625,0.755,0.58,0.955,0.91875,0.84875,0.80875,0.7975,0.81875,0.5190032958984375,0.4885650634765625,0.612750244140625,0.5480172845383826,0.2293330490524556,0.11395239713069928,0.17647293236868947,0.002068320933926218
0.65,0.64375,0.6975,0.62625,0.755,0.58,0.955,0.91875,0.84875,0.80875,0.7975,0.81875,0.5159759521484375,0.45806884765625,0.5783782958984375,0.5179455014513079,0.281050940456858,0.11395239713069928,0.17647293236868947,0.002068320933926218
0.65,0.64375,0.6975,0.62625,0.755,0.58,0.955,0.91875,0.84875,0.80875,0.7975,0.81875,0.5380645751953125,0.469696044921875,0.58245849609375,0.5001951352540889,0.34155689913275905,0.11350194899409971,0.17623486207329,0.002479633752502576
0.6445000000000001,0.638,0.6927500000000001,0.6214999999999999,0.74625,0.5720000000000001,0.94525,0.907,0.8420000000000001,0.79475,0.78925,0.79825,0.5342254638671875,0.46007080078125,0.583331298828125,0.49673147923481137,0.4157571939217165,0.1130398568048843,0.1765920295723472,0.0012377509679363367
0.639,0.63225,0.688,0.61675,0.7375,0.564,0.9355,0.8952500000000001,0.83525,0.78075,0.7809999999999999,0.77775,0.525006103515625,0.45595703125,0.563262939453125,0.49698933695138914,0.4859641789090213,0.11349321595463785,0.17706804309618443,0.0033074900659195595
0.6335000000000001,0.6265,0.68325,0.612,0.72875,0.556,0.9257500000000001,0.8835,0.8284999999999999,0.7667499999999999,0.77275,0.75725,0.5118194580078125,0.4998626708984375,0.5503265380859375,0.4865217084088449,0.5020907390850549,0.11349321595463785,0.17706804309618443,0.0033074900659195595
0.628,0.62075,0.6785,0.6072500000000001,0.72,0.5479999999999999,0.9159999999999999,0.87175,0.82175,0.75275,0.7645000000000001,0.73675,0.517864990234375,0.505120849609375,0.5359466552734375,0.4877343365070222,0.5321207069064732,0.11486784280621848,0.1765921551617861,0.00206661391682201
0.6225,0.615,0.67375,0.6025,0.71125,0.54,0.90625,0.86,0.815,0.73875,0.75625,0.71625,0.4946319580078125,0.5000823974609375,0.531915283203125,0.48859153910489134,0.5293121487225567,0.11486784280621848,0.1765921551617861,0.00206661391682201
0.6225,0.615,0.67375,0.6025,0.71125,0.54,0.90625,0.86,0.815,0.73875,0.75625,0.71625,0.4962646484375,0.4998809814453125,0.5299560546875,0.49444560571997215,0.5160429307347101,0.11441739466961891,0.1768298486888689,0.0023410652035039453
0.62375,0.61625,0.6757500000000001,0.6032500000000001,0.7125,0.5395,0.9077500000000001,0.86175,0.81625,0.742,0.75775,0.7282500000000001,0.5004791259765625,0.5011260986328125,0.5327362060546875,0.49759565115716375,0.5061607086561134,0.11579202152119951,0.17635421045582553,0.0022056340162167087
0.625,0.6175,0.6777500000000001,0.604,0.71375,0.539,0.90925,0.8634999999999999,0.8175,0.7452500000000001,0.75925,0.7402500000000001,0.49952392578125,0.50037841796875,0.533428955078125,0.4994564080795909,0.5005226847644513,0.11625119703381122,0.17694957383972107,0.0034487931484342552
0.62625,0.61875,0.67975,0.60475,0.715,0.5385,0.9107500000000001,0.8652500000000001,0.81875,0.7484999999999999,0.76075,0.75225,0.4988525390625,0.4997802734375,0.5342987060546875,0.5017701582451821,0.4948010314314658,0.11944799352386787,0.17671112677600498,0.0028931964927055775
0.6275,0.62,0.68175,0.6054999999999999,0.71625,0.5379999999999999,0.9122499999999999,0.867,0.82,0.7517499999999999,0.76225,0.76425,0.4989044189453125,0.4998382568359375,0.53370361328125,0.5027249286199692,0.5007038818873186,0.09601534572865765,0.19945038013130634,0.010733803594852561
0.62875,0.62125,0.68375,0.60625,0.7175,0.5375,0.91375,0.86875,0.82125,0.755,0.76375,0.77625,0.4978271484375,0.4995758056640625,0.53187255859375,0.5031988292234642,0.5043208586580212,0.10651535318458923,0.21076102409836453,0.021879951874889836
0.62875,0.62125,0.68375,0.60625,0.7175,0.5375,0.91375,0.86875,0.82125,0.755,0.76375,0.77625,0.4965057373046875,0.499176025390625,0.5307830810546875,0.503951494971992,0.5056798383943258,0.12718129252461388,0.21338494503723004,0.029855093153807015
0.62975,0.6225,0.685,0.6072500000000001,0.7190000000000001,0.53775,0.91475,0.8697499999999999,0.8215,0.759,0.765,0.77825,0.49671630859375,0.499609375,0.5308258056640625,0.5041954143938497,0.5060352639014465,0.08538151095594064,0.25922137278352336,0.05279705153843702
0.63075,0.62375,0.68625,0.6082500000000001,0.7204999999999999,0.5379999999999999,0.9157500000000001,0.87075,0.82175,0.763,0.76625,0.7802500000000001,0.4965606689453125,0.50006103515625,0.5303955078125,0.5047459753730572,0.506334936338686,0.08538151095594064,0.25922137278352336,0.05279705153843702
0.6317499999999999,0.625,0.6875,0.60925,0.722,0.53825,0.91675,0.87175,0.8220000000000001,0.767,0.7675,0.7822499999999999,0.496337890625,0.5003753662109375,0.530047607421875,0.5036587915867384,0.5057564988245379,0.11005495828594608,0.25042384736473067,0.09654765543815204
0.63275,0.62625,0.68875,0.61025,0.7234999999999999,0.5385,0.9177500000000001,0.87275,0.8222499999999999,0.7709999999999999,0.76875,0.78425,0.4962860107421875,0.5004791259765625,0.5298614501953125,0.5025019165311926,0.5045717472544887,0.25108577534158566,0.2634394462733862,0.22734105648136005
0.63375,0.6275,0.69,0.61125,0.725,0.53875,0.91875,0.87375,0.8225,0.775,0.77,0.78625,0.4962890625,0.5004608154296875,0.5299285888671875,0.5013938253164187,0.5029409715681983,0.4353501668766607,0.9324419627340912,0.9751410596672704
0.63375,0.6275,0.69,0.61125,0.725,0.53875,0.91875,0.87375,0.8225,0.775,0.77,0.78625,0.496331787109375,0.5002166748046875,0.5301605224609375,0.5009896159685261,0.5014983623020086,0.4703233620806453,0.9330361751277175,0.9243255391625489
0.63375,0.6275,0.69,0.61125,0.725,0.53875,0.91875,0.87375,0.8225,0.775,0.77,0.78625,0.4964752197265625,0.4998870849609375,0.530615234375,0.4999999999863751,0.5002439194354826,0.5844595041739256,0.3423523216911362,0.5571877835982819
0.63375,0.6275,0.69,0.61125,0.725,0.53875,0.91875,0.87375,0.8225,0.775,0.77,0.78625,0.4966522216796875,0.4996795654296875,0.5309661865234375,0.5004878388709652,0.49984667920770026,0.5844595041739256,0.3423523216911362,0.5571877835982819
0.63375,0.62725,0.68975,0.612,0.7247499999999999,0.53875,0.92025,0.8752500000000001,0.82375,0.77875,0.772,0.789,0.49661865234375,0.4997314453125,0.531048583984375,0.5008920482324827,0.4999303087307728,0.5236564191886579,0.247437668860726,0.46107831823272377
0.63375,0.627,0.6895,0.61275,0.7245,0.53875,0.92175,0.8767499999999999,0.825,0.7825,0.774,0.79175,0.4965606689453125,0.4999237060546875,0.53096923828125,0.5010732455256608,0.500097567776918,0.502973042086958,0.12765269754250222,0.3878148511373766
0.63375,0.6267499999999999,0.6892499999999999,0.6135,0.72425,0.53875,0.92325,0.87825,0.82625,0.78625,0.7759999999999999,0.7945,0.49654541015625,0.50006103515625,0.5308197021484375,0.5007666039478738,0.500097567776918,0.502973042086958,0.12765269754250222,0.3878148511373766
0.63375,0.6265,0.6890000000000001,0.61425,0.7240000000000001,0.53875,0.92475,0.8797499999999999,0.8275,0.79,0.778,0.7972499999999999,0.4965057373046875,0.500091552734375,0.5308319091796875,0.5002508885692177,0.5000418147615363,0.5056728312203012,0.12134555159592249,0.40017091695814294
0.63375,0.62625,0.68875,0.615,0.72375,0.53875,0.92625,0.88125,0.82875,0.79375,0.78,0.8,0.49642333984375,0.5001312255859375,0.5308685302734375,0.4998188027000094,0.49991637047692744,0.5056728312203012,0.12134555159592249,0.40017091695814294
0.63375,0.62625,0.68875,0.615,0.72375,0.53875,0.92625,0.88125,0.82875,0.79375,0.78,0.8,0.4963958740234375,0.500091552734375,0.530975341796875,0.49950519198167476,0.49973517317693683,0.46157132740846246,0.24303569401673977,0.4847308638138457
0.63375,0.62625,0.68875,0.615,0.72375,0.53875,0.92625,0.88125,0.82875,0.79375,0.78,0.8,0.4964111328125,0.500054931640625,0.531134033203125,0.49921945777784343,0.4996863892884778,0.46157132740846246,0.24303569401673977,0.4847308638138457
0.63375,0.62575,0.68875,0.61475,0.72275,0.5385,0.92625,0.88075,0.8284999999999999,0.7935,0.7795000000000001,0.8,0.4964111328125,0.5000030517578125,0.531219482421875,0.498961600081703,0.4997282040500141,0.46203923596053614,0.2928062611719378,0.5100064311651891
0.63375,0.62525,0.68875,0.6145,0.72175,0.53825,0.92625,0.8802500000000001,0.82825,0.79325,0.779,0.8,0.4964385986328125,0.499993896484375,0.531231689453125,0.49872464977995556,0.4998327409538548,0.288058134314566,0.25656269607558807,0.3456377855227652
0.63375,0.62475,0.68875,0.61425,0.72075,0.5379999999999999,0.92625,0.8797499999999999,0.828,0.7929999999999999,0.7785,0.8,0.4964569091796875,0.499951171875,0.531280517578125,0.49845982295689234,0.5,0.2720799738905907,0.25798546484571205,0.32504047864362867
0.63375,0.62425,0.68875,0.614,0.7197499999999999,0.53775,0.92625,0.87925,0.8277500000000001,0.7927500000000001,0.778,0.8,0.496484375,0.4999542236328125,0.531298828125,0.49828559479063694,0.5002021046807588,0.2638845883640789,0.26012343887488576,0.3078793797944696
0.63375,0.62375,0.68875,0.61375,0.71875,0.5375,0.92625,0.87875,0.8275,0.7925,0.7775,0.8,0.4965087890625,0.49991455078125,0.5312652587890625,0.4981462122521826,0.5004390550029435,0.25204776891031944,0.2615455678776329,0.28290992184977276
0.63375,0.62375,0.68875,0.61375,0.71875,0.5375,0.92625,0.87875,0.8275,0.7925,0.7775,0.8,0.496490478515625,0.4999420166015625,0.53134765625,0.49805561360899975,0.5007596348550133,0.25204776891031944,0.2615455678776329,0.28290992184977276
0.63375,0.62375,0.68875,0.61375,0.71875,0.5375,0.92625,0.87875,0.8275,0.7925,0.7775,0.8,0.49642333984375,0.4998687744140625,0.5313507080078125,0.497999860593618,0.5010383999319219,0.25069060247421276,0.2579715096427675,0.272068307335212
0.63375,0.62375,0.68875,0.61375,0.71875,0.5375,0.92625,0.87875,0.8275,0.7925,0.7775,0.8,0.4963409423828125,0.4997955322265625,0.5312591552734375,0.4980904592368009,0.5012544428597137,0.2516409633172302,0.24046627298425993,0.2531721508852882
0.6335000000000001,0.6235,0.68875,0.6132500000000001,0.7195,0.537,0.9277500000000001,0.88075,0.8275,0.7927500000000001,0.77825,0.8005,0.4963104248046875,0.4997100830078125,0.531097412109375,0.49825771828294607,0.5013380723827862,0.2511992425566427,0.23641770091120995,0.24933509834957734
0.63325,0.6232500000000001,0.68875,0.61275,0.7202500000000001,0.5365,0.92925,0.88275,0.8275,0.7929999999999999,0.779,0.8009999999999999,0.4962432861328125,0.4996490478515625,0.5309295654296875,0.4984876994645832,0.5012474737259784,0.2511992425566427,0.23641770091120995,0.24933509834957734
0.633,0.623,0.68875,0.61225,0.721,0.536,0.9307500000000001,0.8847499999999999,0.8275,0.79325,0.7797499999999999,0.8015000000000001,0.4962127685546875,0.499627685546875,0.530706787109375,0.49878737191544753,0.5008084187230349,0.24476782339587724,0.2354637900219522,0.24727625562377203
0.63275,0.62275,0.68875,0.61175,0.72175,0.5355,0.9322499999999999,0.8867499999999999,0.8275,0.7935,0.7805,0.802,0.4962615966796875,0.4996734619140625,0.53056640625,0.4990521987248859,0.5001742281662555,0.2153978527834612,0.23439115130973937,0.25331641471153665
0.6325,0.6225,0.68875,0.61125,0.7225,0.535,0.93375,0.88875,0.8275,0.79375,0.78125,0.8025,0.4962921142578125,0.4997100830078125,0.53055419921875,0.4991637047556493,0.49947731547398394,0.21722293909854087,0.23534456575133272,0.25497090145299867
0.6325,0.6225,0.68875,0.61125,0.7225,0.535,0.93375,0.88875,0.8275,0.79375,0.78125,0.8025,0.4962921142578125,0.4997711181640625,0.5306732177734375,0.49924733427872187,0.498836155810719,0.21722293909854087,0.23534456575133272,0.25497090145299867
0.6325,0.6225,0.68875,0.61125,0.7225,0.535,0.93375,0.88875,0.8275,0.79375,0.78125,0.8025,0.496337890625,0.499786376953125,0.5307952880859375,0.49930308730091605,0.4983065021509678,0.23278264421336145,0.23522873091804042,0.2621246003482094
0.6325,0.6225,0.68875,0.61125,0.7225,0.535,0.93375,0.88875,0.8275,0.79375,0.78125,0.8025,0.496343994140625,0.4997100830078125,0.5309173583984375,0.49934490206245236,0.4979510766983466,0.23278264421336145,0.23522873091804042,0.2621246003482094
0.63225,0.62225,0.6884999999999999,0.61075,0.7234999999999999,0.5347500000000001,0.9329999999999999,0.8895000000000001,0.8277500000000001,0.79325,0.7809999999999999,0.8025,0.4962982177734375,0.4996490478515625,0.5310211181640625,0.49940065507783404,0.4977768485593409,0.2428409195818061,0.2364202171325561,0.2659667278231501
0.632,0.622,0.68825,0.61025,0.7245,0.5345,0.9322499999999999,0.8902500000000001,0.828,0.7927500000000001,0.78075,0.8025,0.4963653564453125,0.49962158203125,0.531036376953125,0.4995539758769462,0.49759565127297517,0.2583802645948982,0.23023341246384052,0.27725592100437824
0.6317499999999999,0.62175,0.688,0.60975,0.7254999999999999,0.53425,0.9315000000000001,0.8909999999999999,0.82825,0.7922499999999999,0.7805,0.8025,0.4964111328125,0.4995819091796875,0.5309906005859375,0.49965851278078693,0.49749111436232196,0.26248086270785825,0.22868677409138102,0.2815186507074883
0.6315,0.6214999999999999,0.6877500000000001,0.60925,0.7265,0.534,0.9307500000000001,0.8917499999999999,0.8284999999999999,0.79175,0.7802500000000001,0.8025,0.49642333984375,0.4995819091796875,0.5310028076171875,0.4997630496846277,0.4974005157463889,0.26248086270785825,0.22868677409138102,0.2815186507074883
0.63125,0.62125,0.6875,0.60875,0.7275,0.53375,0.93,0.8925,0.82875,0.79125,0.78,0.8025,0.496484375,0.499639892578125,0.5310546875,0.4997700188115504,0.49740748486649916,0.26248086270785825,0.22868677409138102,0.2815186507074883
0.63125,0.62125,0.6875,0.60875,0.7275,0.53375,0.93,0.8925,0.82875,0.79125,0.78,0.8025,0.496551513671875,0.4996734619140625,0.531134033203125,0.49977698793847314,0.4975259599901231,0.28335870001900143,0.21131521630914737,0.32058622370952117
0.63125,0.62125,0.6875,0.60875,0.7275,0.53375,0.93,0.8925,0.82875,0.79125,0.78,0.8025,0.496563720703125,0.499688720703125,0.5311737060546875,0.4997630496846277,0.4977838176794512,0.28335870001900143,0.21131521630914737,0.32058622370952117
0.63125,0.62125,0.6875,0.60875,0.7275,0.53375,0.93,0.8925,0.82875,0.79125,0.78,0.8025,0.4965545654296875,0.4996734619140625,0.5312164306640625,0.4998188027000094,0.49813227401196203,0.28518666902998646,0.21107689778991578,0.32155781312521436
0.63125,0.62125,0.6875,0.60875,0.7275,0.53375,0.93,0.8925,0.82875,0.79125,0.78,0.8025,0.4965667724609375,0.4996429443359375,0.5312103271484375,0.4999303087307728,0.4985155759722741,0.2888310252972876,0.2052437470710142,0.3234872957979594
0.63125,0.62125,0.6875,0.60875,0.72675,0.53325,0.92875,0.8915000000000001,0.8272499999999999,0.79,0.77925,0.8015000000000001,0.4965423583984375,0.4996612548828125,0.53115234375,0.5001115060307635,0.4989128161864316,0.2888310252972876,0.2052437470710142,0.3234872957979594
0.63125,0.62125,0.6875,0.60875,0.726,0.53275,0.9275,0.8905,0.82575,0.78875,0.7785,0.8005,0.4964935302734375,0.49969482421875,0.5309967041015625,0.5002996724576767,0.49913582824795844,0.29248988565931106,0.20274369721200697,0.32529073674752945
0.63125,0.62125,0.6875,0.60875,0.7252500000000001,0.53225,0.92625,0.8895000000000001,0.8242499999999999,0.7875,0.77775,0.7995,0.4964080810546875,0.49967041015625,0.5309967041015625,0.5004739006307446,0.49922642689114133,0.2879097462685611,0.19845731193252653,0.32144041785259087
0.63125,0.62125,0.6875,0.60875,0.7245,0.53175,0.925,0.8885,0.8227500000000001,0.78625,0.777,0.7985,0.496368408203125,0.49971923828125,0.53094482421875,0.5005714684008502,0.49923339602487643,0.28607884359062324,0.19655174633134267,0.3215917751092422
0.63125,0.62125,0.6875,0.60875,0.72375,0.53125,0.92375,0.8875,0.82125,0.785,0.77625,0.7975,0.4963623046875,0.499786376953125,0.5308746337890625,0.500627221416232,0.4991079517266427,0.28515467620254165,0.19452758588425656,0.3204954316285364
0.63125,0.62125,0.6875,0.60875,0.72375,0.53125,0.92375,0.8875,0.82125,0.785,0.77625,0.7975,0.4963714599609375,0.4997802734375,0.5308441162109375,0.5006899435585364,0.4989128161591818,0.2856196680780115,0.1921461308711515,0.3174764526843671
0.63125,0.62125,0.6875,0.60875,0.72375,0.53125,0.92375,0.8875,0.82125,0.785,0.77625,0.7975,0.4963775634765625,0.499749755859375,0.5309234619140625,0.5007247891863376,0.49868980409765495,0.27510511121975995,0.19095339910490666,0.3148664052612133
0.63125,0.6214999999999999,0.6872499999999999,0.60875,0.7232500000000001,0.531,0.92375,0.88725,0.8205,0.78425,0.7755,0.7977500000000001,0.496417236328125,0.4998077392578125,0.530902099609375,0.5007875113354544,0.4984946685438189,0.28152199230510483,0.18202508484445723,0.31322356138564755
0.63125,0.62175,0.687,0.60875,0.72275,0.53075,0.92375,0.887,0.81975,0.7835,0.7747499999999999,0.7979999999999999,0.496435546875,0.49981689453125,0.530926513671875,0.5008084187230349,0.49820196521306487,0.28152199230510483,0.18202508484445723,0.31322356138564755
0.63125,0.622,0.68675,0.60875,0.72225,0.5305,0.92375,0.8867499999999999,0.8190000000000001,0.7827500000000001,0.774,0.79825,0.4964141845703125,0.4997955322265625,0.530963134765625,0.5007456965807305,0.4979092618959357,0.2842566909424964,0.18142996968439384,0.3136298853988847
0.63125,0.62225,0.6865000000000001,0.60875,0.72175,0.53025,0.92375,0.8865000000000001,0.81825,0.782,0.77325,0.7985,0.4963958740234375,0.499810791015625,0.5309814453125,0.5006899435653488,0.4974980834279328,0.28013570441055924,0.17869235632031116,0.3152733696233743
0.63125,0.6225,0.68625,0.60875,0.72125,0.53,0.92375,0.88625,0.8175,0.78125,0.7725,0.79875,0.496478271484375,0.499798583984375,0.5310089111328125,0.5008014495961123,0.49702418279718813,0.28196660708849713,0.17881120825518237,0.3151367891141735
0.63125,0.6225,0.68625,0.60875,0.72125,0.53,0.92375,0.88625,0.8175,0.78125,0.7725,0.79875,0.4965545654296875,0.4997772216796875,0.53106689453125,0.5009756777623677,0.4967036029723681,0.28196660708849713,0.17881120825518237,0.3151367891141735
0.63125,0.6225,0.68625,0.60875,0.72125,0.53,0.92375,0.88625,0.8175,0.78125,0.7725,0.79875,0.496649169921875,0.49986572265625,0.531158447265625,0.5011499059286232,0.49659906606171494,0.2847100387653505,0.1767872975094512,0.31389433819394513
0.631,0.6225,0.68625,0.609,0.7204999999999999,0.53025,0.92125,0.8845000000000001,0.81525,0.778,0.7709999999999999,0.79675,0.4967376708984375,0.4998779296875,0.5312255859375,0.5013171649815807,0.4965781587013841,0.2856429505197934,0.17690652178007069,0.3120970205809598
0.63075,0.6225,0.68625,0.60925,0.7197499999999999,0.5305,0.91875,0.88275,0.813,0.7747499999999999,0.7695000000000001,0.79475,0.4968170166015625,0.49984130859375,0.5312744140625,0.5014635166401453,0.4967175412125887,0.2851692142779622,0.17714446944107687,0.31250761039687885
0.6305,0.6225,0.68625,0.6095,0.7190000000000001,0.53075,0.91625,0.8809999999999999,0.8107500000000001,0.7715000000000001,0.768,0.7927500000000001,0.496771240234375,0.4998992919921875,0.5312774658203125,0.5014635166401453,0.49698236804927676,0.2851692142779622,0.17714446944107687,0.31250761039687885
0.63025,0.6225,0.68625,0.60975,0.71825,0.531,0.91375,0.87925,0.8085,0.76825,0.7665000000000001,0.7907500000000001,0.4968017578125,0.4998992919921875,0.5312347412109375,0.5013798871170727,0.4971496270954219,0.2828820471005666,0.17821521544656957,0.3115315707301724
0.63,0.6225,0.68625,0.61,0.7175,0.53125,0.91125,0.8775,0.80625,0.765,0.765,0.78875,0.496746826171875,0.4998138427734375,0.53114013671875,0.5013589797294922,0.4971496270954219,0.2746488523837519,0.17547357583282844,0.300113410753647
0.63,0.6225,0.68625,0.61,0.7175,0.53125,0.91125,0.8775,0.80625,0.765,0.765,0.78875,0.4967529296875,0.4998077392578125,0.531109619140625,0.5013729179697127,0.4971217505604813,0.2746488523837519,0.17547357583282844,0.300113410753647
0.63,0.6225,0.68625,0.61,0.7175,0.53125,0.91125,0.8775,0.80625,0.765,0.765,0.78875,0.496728515625,0.4998443603515625,0.5311187744140625,0.501386856237183,0.4969963062894973,0.27694474127370994,0.1746397698177852,0.2991576986851172
0.63,0.6225,0.68625,0.61,0.7175,0.53125,0.91125,0.8775,0.80625,0.765,0.765,0.78875,0.496759033203125,0.4998321533203125,0.5311248779296875,0.5014217018649841,0.496849954603683,0.2810831599038724,0.17213833404238177,0.29187853751290466
0.6305,0.62275,0.68675,0.61075,0.7177500000000001,0.53225,0.90975,0.8767499999999999,0.8059999999999999,0.762,0.76375,0.7855,0.496759033203125,0.499859619140625,0.5311492919921875,0.5013659488496025,0.4967523868131401,0.2810831599038724,0.17213833404238177,0.29187853751290466
0.631,0.623,0.6872499999999999,0.6114999999999999,0.718,0.53325,0.90825,0.8759999999999999,0.8057500000000001,0.759,0.7625,0.7822499999999999,0.496893310546875,0.4998870849609375,0.5311981201171875,0.5012474736987287,0.49679420158830123,0.27743883195381985,0.1718996372773107,0.2891325690703384
0.6315,0.6232500000000001,0.6877500000000001,0.61225,0.71825,0.53425,0.90675,0.8752500000000001,0.8055,0.7559999999999999,0.76125,0.779,0.4969146728515625,0.4999114990234375,0.531231689453125,0.5011150602940095,0.4970032754096076,0.27743883195381985,0.1718996372773107,0.2891325690703384
0.632,0.6235,0.68825,0.613,0.7184999999999999,0.53525,0.9052500000000001,0.8745,0.80525,0.753,0.76,0.77575,0.49697265625,0.49989013671875,0.53123779296875,0.5009687086218201,0.4972890096066265,0.2746895669237591,0.16951743168261799,0.28555886785993567
0.6325,0.62375,0.68875,0.61375,0.71875,0.53625,0.90375,0.87375,0.805,0.75,0.75875,0.7725,0.497021484375,0.499884033203125,0.531243896484375,0.5008014495892998,0.4976235276989168,0.2746895669237591,0.16951743168261799,0.28555886785993567
0.6325,0.62375,0.68875,0.61375,0.71875,0.53625,0.90375,0.87375,0.805,0.75,0.75875,0.7725,0.49700927734375,0.4998779296875,0.531182861328125,0.5007317583200727,0.49795107667109684,0.27835137794308457,0.1690411640248574,0.2848693982573039
0.6325,0.62375,0.68875,0.61375,0.71875,0.53625,0.90375,0.87375,0.805,0.75,0.75875,0.7725,0.496954345703125,0.4998687744140625,0.5311492919921875,0.5007526657076532,0.4982089343604249,0.2806443501564389,0.16916013416155343,0.2844548471524574
0.6325,0.62375,0.68875,0.61375,0.71875,0.53625,0.90375,0.87375,0.805,0.75,0.75875,0.7725,0.49693603515625,0.49990234375,0.531103515625,0.5007456965739181,0.4982507491083363,0.281106448009104,0.16880120988787461,0.27851172006752845
0.63275,0.6245,0.6892499999999999,0.614,0.7197499999999999,0.53775,0.90275,0.8734999999999999,0.80375,0.74925,0.758,0.77,0.4969757080078125,0.49989013671875,0.5310577392578125,0.5007317583200727,0.4982646873758066,0.281106448009104,0.16880120988787461,0.27851172006752845
0.633,0.62525,0.68975,0.61425,0.72075,0.53925,0.9017499999999999,0.8732500000000001,0.8025,0.7484999999999999,0.75725,0.7675,0.49697265625,0.499908447265625,0.5310272216796875,0.5007456965739181,0.49824378001547576,0.2806530831959007,0.1691577509172602,0.2782318475659758
0.63325,0.626,0.69025,0.6145,0.72175,0.5407500000000001,0.90075,0.873,0.80125,0.74775,0.7565000000000001,0.765,0.4969696044921875,0.4999603271484375,0.5310211181640625,0.5007317583200727,0.4981601504924032,0.2797347208437779,0.16999181106622682,0.2820499184543052
0.6335000000000001,0.6267499999999999,0.69075,0.61475,0.72275,0.54225,0.8997499999999999,0.87275,0.8,0.747,0.75575,0.7625,0.496966552734375,0.4999786376953125,0.5310028076171875,0.5006969126922716,0.49810439747702145,0.2797347208437779,0.16999181106622682,0.2820499184543052
0.63375,0.6275,0.69125,0.615,0.72375,0.54375,0.89875,0.8725,0.79875,0.74625,0.755,0.76,0.4970184326171875,0.4999664306640625,0.5309906005859375,0.5006620670644704,0.4980486444616397,0.28293443401043816,0.17023063194321403,0.28423763227108495
0.63375,0.6275,0.69125,0.615,0.72375,0.54375,0.89875,0.8725,0.79875,0.74625,0.755,0.76,0.4969818115234375,0.5000244140625,0.53099365234375,0.5006481288106249,0.49803470619416945,0.28887757319050217,0.1697556260899335,0.2868413475482222
0.634,0.628,0.6915,0.61575,0.7240000000000001,0.544,0.8995000000000001,0.87275,0.79875,0.74575,0.7545000000000001,0.759,0.497052001953125,0.5000213623046875,0.531005859375,0.5005366227798616,0.49806955182197055,0.27929008907003644,0.17094396222581734,0.282823812320294
0.63425,0.6285000000000001,0.69175,0.6164999999999999,0.72425,0.54425,0.9002500000000001,0.873,0.79875,0.7452500000000001,0.754,0.758,0.4971405029296875,0.499981689453125,0.531048583984375,0.5004251167490981,0.4981253048373523,0.2788338245705787,0.17177651677904013,0.2799178636615863
0.6345000000000001,0.629,0.6920000000000001,0.61725,0.7245,0.5445,0.9009999999999999,0.8732500000000001,0.79875,0.7447499999999999,0.7535,0.757,0.497161865234375,0.4999969482421875,0.5310760498046875,0.5003205798384449,0.4982089343604249,0.2742711399318529,0.1720143358955618,0.28005359240231364
0.63475,0.6295000000000001,0.6922499999999999,0.618,0.7247499999999999,0.5447500000000001,0.9017499999999999,0.8734999999999999,0.79875,0.74425,0.753,0.7559999999999999,0.4971588134765625,0.5,0.5310760498046875,0.5002508885692177,0.4983483168988792,0.27655538476919517,0.17356134808129228,0.2788057246174111
0.635,0.63,0.6925,0.61875,0.725,0.545,0.9025,0.87375,0.79875,0.74375,0.7525,0.755,0.497174072265625,0.499969482421875,0.5310821533203125,0.5001811972999906,0.49848073031722323,0.27655538476919517,0.17356134808129228,0.2788057246174111
0.635,0.63,0.6925,0.61875,0.725,0.545,0.9025,0.87375,0.79875,0.74375,0.7525,0.755,0.497125244140625,0.499969482421875,0.5310638427734375,0.5001811972999906,0.49859920546809694,0.2701705248285437,0.1759411704316918,0.2732884243466407
0.635,0.63,0.6925,0.61875,0.725,0.545,0.9025,0.87375,0.79875,0.74375,0.7525,0.755,0.497100830078125,0.5000152587890625,0.5310272216796875,0.5001602899192225,0.49869677323139006,0.2701705248285437,0.1759411704316918,0.2732884243466407
0.635,0.63,0.6925,0.61875,0.725,0.545,0.9025,0.87375,0.79875,0.74375,0.7525,0.755,0.4970916748046875,0.49998779296875,0.531011962890625,0.500097567776918,0.4987455571266615,0.2701879795805679,0.17784534863895668,0.27272998266240506
0.63525,0.63025,0.6925,0.61925,0.725,0.5455,0.90225,0.87375,0.7979999999999999,0.74275,0.7525,0.754,0.4970855712890625,0.500006103515625,0.5310455322265625,0.5000348456346135,0.4987664645142421,0.2701879795805679,0.17784534863895668,0.27272998266240506
0.6355,0.6305,0.6925,0.61975,0.725,0.546,0.902,0.87375,0.7972499999999999,0.74175,0.7525,0.753,0.49708251953125,0.500030517578125,0.531036376953125,0.500048783888459,0.4987734336616021,0.2615101417631124,0.18105621551426673,0.26445144040917834
0.63575,0.63075,0.6925,0.62025,0.725,0.5465,0.9017499999999999,0.87375,0.7965000000000001,0.74075,0.7525,0.752,0.497113037109375,0.5000732421875,0.5310455322265625,0.5000139382538454,0.498738588033801,0.25602909477226377,0.18153185226978727,0.26265612040642305
0.636,0.631,0.6925,0.62075,0.725,0.547,0.9015000000000001,0.87375,0.7957500000000001,0.7397499999999999,0.7525,0.7509999999999999,0.497119140625,0.5000701904296875,0.531072998046875,0.5,0.4987246497935804,0.25602909477226377,0.18153185226978727,0.26265612040642305
0.63625,0.63125,0.6925,0.62125,0.725,0.5475,0.90125,0.87375,0.795,0.73875,0.7525,0.75,0.49713134765625,0.5000762939453125,0.5310760498046875,0.5000069691269227,0.498738588033801,0.2569678228895648,0.18057781135852222,0.25688432842052394
0.63625,0.63125,0.6925,0.62125,0.725,0.5475,0.90125,0.87375,0.795,0.73875,0.7525,0.75,0.4971466064453125,0.500054931640625,0.5310455322265625,0.5000139382538454,0.4987734336616021,0.2569678228895648,0.18057781135852222,0.25688432842052394
0.63625,0.63125,0.6925,0.62125,0.725,0.5475,0.90125,0.87375,0.795,0.73875,0.7525,0.75,0.497161865234375,0.50008544921875,0.531060791015625,0.4999581852384637,0.4987734336616021,0.26017624077843843,0.18069652883881773,0.2557905654763783
0.63625,0.63125,0.6925,0.62125,0.725,0.5475,0.90125,0.87375,0.795,0.73875,0.7525,0.75,0.4971710205078125,0.500079345703125,0.5310577392578125,0.49994424698461826,0.49885009406456443,0.26017624077843843,0.18069652883881773,0.2557905654763783
0.63625,0.63125,0.6925,0.62125,0.725,0.5475,0.90125,0.87375,0.795,0.73875,0.7525,0.75,0.4971893310546875,0.5000762939453125,0.5310546875,0.499951216111541,0.4989546309752176,0.26293714419766523,0.1798622160334505,0.25083553941295467
0.63625,0.631,0.6925,0.6214999999999999,0.7252500000000001,0.54775,0.9005,0.87375,0.7957500000000001,0.73875,0.752,0.74875,0.497186279296875,0.5000823974609375,0.5310760498046875,0.49993727785769554,0.49901735312433443,0.2624954064467286,0.1790287867867239,0.24973477439253258
0.63625,0.63075,0.6925,0.62175,0.7254999999999999,0.5479999999999999,0.8997499999999999,0.87375,0.7965000000000001,0.73875,0.7515000000000001,0.7475,0.4971771240234375,0.5000732421875,0.53111572265625,0.49992333960385016,0.4990591678994956,0.27444859846524927,0.17867061161710998,0.2425778493916019
0.63625,0.6305,0.6925,0.622,0.72575,0.54825,0.899,0.87375,0.7972499999999999,0.73875,0.7509999999999999,0.74625,0.49718017578125,0.5000640869140625,0.53114013671875,0.4999094013500047,0.4991288591550979,0.27444859846524927,0.17867061161710998,0.2425778493916019
0.63625,0.63025,0.6925,0.62225,0.726,0.5485,0.89825,0.87375,0.7979999999999999,0.73875,0.7505,0.745,0.49718017578125,0.50006103515625,0.53111572265625,0.49991637047692744,0.49917067390300934,0.2717138998278577,0.1789084351662001,0.24202826731754565
0.63625,0.63,0.6925,0.6225,0.72625,0.54875,0.8975,0.87375,0.79875,0.73875,0.75,0.74375,0.4971710205078125,0.500054931640625,0.53109130859375,0.499902432223082,0.4991846121432299,0.27081008121460515,0.17914562190295893,0.24064850592514472
0.63625,0.63,0.6925,0.6225,0.72625,0.54875,0.8975,0.87375,0.79875,0.73875,0.75,0.74375,0.497198486328125,0.5000518798828125,0.5310546875,0.49987455571539113,0.49919158127696506,0.27081008121460515,0.17914562190295893,0.24064850592514472
0.63625,0.63,0.6925,0.6225,0.72625,0.54875,0.8975,0.87375,0.79875,0.73875,0.75,0.74375,0.497216796875,0.5000732421875,0.5310302734375,0.49993727785769554,0.49922642690476615,0.27402432679323635,0.17902589527458393,0.23843545830406312
0.63625,0.63,0.6925,0.6225,0.72625,0.54875,0.8975,0.87375,0.79875,0.73875,0.75,0.74375,0.49725341796875,0.5000701904296875,0.5310089111328125,0.4999581852384637,0.49923339602487643,0.27402432679323635,0.17902589527458393,0.23843545830406312
0.6365,0.6305,0.6925,0.6225,0.72625,0.54875,0.89775,0.8734999999999999,0.7979999999999999,0.7384999999999999,0.7497499999999999,0.74225,0.4972686767578125,0.500054931640625,0.5310455322265625,0.49993727785769554,0.4993239946816842,0.27448350796929777,0.17902577116266785,0.2391263277999266
0.6367499999999999,0.631,0.6925,0.6225,0.72625,0.54875,0.898,0.8732500000000001,0.7972499999999999,0.7382500000000001,0.7495,0.74075,0.497265625,0.50006103515625,0.5310699462890625,0.49992333960385016,0.4994076242115692,0.27448350796929777,0.17902577116266785,0.2391263277999266
0.637,0.6315,0.6925,0.6225,0.72625,0.54875,0.89825,0.873,0.7965000000000001,0.738,0.74925,0.73925,0.497259521484375,0.5000244140625,0.5310516357421875,0.49991637047692744,0.4994703463470612,0.274936872782501,0.1770018604169367,0.23816169260834863
0.63725,0.632,0.6925,0.6225,0.72625,0.54875,0.8985,0.87275,0.7957500000000001,0.73775,0.7490000000000001,0.73775,0.497259521484375,0.500030517578125,0.5310455322265625,0.4998327409538548,0.4995609449970565,0.274936872782501,0.1770018604169367,0.23816169260834863
0.6375,0.6325,0.6925,0.6225,0.72625,0.54875,0.89875,0.8725,0.795,0.7375,0.74875,0.73625,0.4972686767578125,0.5000091552734375,0.5310577392578125,0.49979789531924124,0.4996863892884778,0.2699120902911102,0.1771205823298006,0.23706225526789634
0.6375,0.6325,0.6925,0.6225,0.72625,0.54875,0.89875,0.8725,0.795,0.7375,0.74875,0.73625,0.4972320556640625,0.500006103515625,0.5310638427734375,0.4998118335730867,0.4996794201615551,0.27496305491053735,0.17688163734089737,0.23624121049214952
0.6375,0.6325,0.6925,0.6225,0.72625,0.54875,0.89875,0.8725,0.795,0.7375,0.74875,0.73625,0.4972198486328125,0.499981689453125,0.5310577392578125,0.49980486444616395,0.49970729666924596,0.2809294708689335,0.17402517351946625,0.23486331359396587
0.6375,0.6325,0.6925,0.6225,0.72625,0.54875,0.89875,0.8725,0.795,0.7375,0.74875,0.73625,0.4972564697265625,0.500048828125,0.5310760498046875,0.4998188027000094,0.4997142657961687,0.2809323762186377,0.17390607631580848,0.23430958839276889
0.6375,0.6325,0.6925,0.6225,0.72625,0.54875,0.89875,0.8725,0.795,0.7375,0.74875,0.73625,0.4972869873046875,0.50003662109375,0.531085205078125,0.4998118335730867,0.4996794201615551,0.2809323762186377,0.17390607631580848,0.23430958839276889
0.6375,0.6325,0.6922499999999999,0.62275,0.72625,0.54875,0.899,0.873,0.79475,0.7375,0.7484999999999999,0.7365,0.4972503662109375,0.500048828125,0.5310760498046875,0.4997839570653958,0.49965851278078693,0.283684540934953,0.17402504645250455,0.23347985453454512
0.6375,0.6325,0.6920000000000001,0.623,0.72625,0.54875,0.89925,0.8734999999999999,0.7945,0.7375,0.7482500000000001,0.73675,0.4972320556640625,0.5000885009765625,0.5310791015625,0.49973517317693683,0.49970032754232324,0.283684540934953,0.17402504645250455,0.23347985453454512
0.6375,0.6325,0.69175,0.6232500000000001,0.72625,0.54875,0.8995000000000001,0.8740000000000001,0.79425,0.7375,0.748,0.737,0.4972137451171875,0.5001220703125,0.5310821533203125,0.4996863892884778,0.49973517317693683,0.28094692562095774,0.17390582218188508,0.23279382419726144
0.6375,0.6325,0.6915,0.6235,0.72625,0.54875,0.8997499999999999,0.8745,0.794,0.7375,0.74775,0.73725,0.4971923828125,0.500140380859375,0.5311126708984375,0.49965851278078693,0.49980486444616395,0.2832282651085958,0.17462003454560626,0.23141335198275334
0.6375,0.6325,0.69125,0.62375,0.72625,0.54875,0.9,0.875,0.79375,0.7375,0.7475,0.7375,0.497174072265625,0.5001251220703125,0.5311248779296875,0.4996445745269415,0.4998675865884684,0.2832282651085958,0.17462003454560626,0.23141335198275334
0.6375,0.6325,0.69125,0.62375,0.72625,0.54875,0.9,0.875,0.79375,0.7375,0.7475,0.7375,0.4971832275390625,0.5001434326171875,0.5311126708984375,0.4996515436538642,0.49988849396923657,0.2823157304462305,0.17354865763787347,0.23183105349990069
0.6375,0.6325,0.69125,0.62375,0.72625,0.54875,0.9,0.875,0.79375,0.7375,0.7475,0.7375,0.4971649169921875,0.5000885009765625,0.5310821533203125,0.4996794201615551,0.4999581852384637,0.2823157304462305,0.17354865763787347,0.23183105349990069
0.6375,0.63225,0.69125,0.6235,0.72625,0.54875,0.8997499999999999,0.875,0.79325,0.73775,0.747,0.7384999999999999,0.4971649169921875,0.500079345703125,0.531072998046875,0.499756080557705,0.49994424698461826,0.28552125431229924,0.17307226586819682,0.23155418785416457
0.6375,0.632,0.69125,0.6232500000000001,0.72625,0.54875,0.8995000000000001,0.875,0.7927500000000001,0.738,0.7465,0.7395,0.497161865234375,0.50001220703125,0.531060791015625,0.4997630496846277,0.49992333960385016,0.2873725057650661,0.17545233644242847,0.22825661188605462
0.6375,0.6317499999999999,0.69125,0.623,0.72625,0.54875,0.89925,0.875,0.7922499999999999,0.7382500000000001,0.746,0.7404999999999999,0.4971466064453125,0.5000152587890625,0.5310394287109375,0.4998327409538548,0.4999094013500047,0.2873725057650661,0.17545233644242847,0.22825661188605462
0.6375,0.6315,0.69125,0.62275,0.72625,0.54875,0.899,0.875,0.79175,0.7384999999999999,0.7454999999999999,0.7415,0.4971405029296875,0.4999786376953125,0.5310546875,0.4998954630961593,0.4999094013500047,0.2864570657529966,0.17473812703375294,0.22784376257807662
0.6375,0.63125,0.69125,0.6225,0.72625,0.54875,0.89875,0.875,0.79125,0.73875,0.745,0.7425,0.497174072265625,0.500030517578125,0.5310821533203125,0.4999094013500047,0.4998188027000094,0.2873696004153619,0.1762847668837352,0.2259136943688836
0.6375,0.63125,0.69125,0.6225,0.72625,0.54875,0.89875,0.875,0.79125,0.73875,0.745,0.7425,0.4972015380859375,0.5000396728515625,0.5311309814453125,0.4999303087307728,0.4997909261923185,0.2873696004153619,0.1762847668837352,0.2259136943688836
0.6375,0.63125,0.69125,0.6225,0.72625,0.54875,0.89875,0.875,0.79125,0.73875,0.745,0.7425,0.4971710205078125,0.5000823974609375,0.5311279296875,0.49998606174615456,0.4997700188115504,0.2850853385876705,0.17557030334113627,0.226051251932217
0.6375,0.6315,0.69125,0.623,0.726,0.5485,0.8985,0.875,0.7905,0.73875,0.7452500000000001,0.7432500000000001,0.4971588134765625,0.5001129150390625,0.5311065673828125,0.4999651543653864,0.49970729666924596,0.2846232577253546,0.17342616656432017,0.22071125523006618
0.6375,0.6317499999999999,0.69125,0.6235,0.72575,0.54825,0.89825,0.875,0.78975,0.73875,0.7454999999999999,0.7440000000000001,0.4971038818359375,0.50009765625,0.53111572265625,0.4999930308730773,0.49967245103463237,0.2846232577253546,0.17342616656432017,0.22071125523006618
0.6375,0.632,0.69125,0.624,0.7254999999999999,0.5479999999999999,0.898,0.875,0.789,0.73875,0.74575,0.7447499999999999,0.4970977783203125,0.5000946044921875,0.53109130859375,0.5000418147615363,0.4996376054000188,0.2846145303493425,0.1741403744954729,0.21920437152568134
