C0,C1,C2,C3,C4,C5,C6,C7,C8,C9,C10,C11,Ax,Ay,Az,Gr,Gp,Fx_norm,Fy_norm,Fz_norm
0.63875,0.63125,0.68125,0.6075,0.71375,0.56625,0.855,0.85,0.74875,0.70125,0.71875,0.63375,0.4977619759717602,0.500289925840022,0.5310017192093671,0.49973357016217085,0.49940793369371306,0.34719738833190184,0.2905245763013576,0.19921308629890652
0.63875,0.63125,0.68125,0.6075,0.7140625,0.56625,0.855,0.85,0.74875,0.7015625,0.71875,0.6340625,0.4977263710440382,0.5003013702810755,0.5310487685781426,0.49974467140541373,0.4994338365946131,0.34719738833190184,0.2905245763013576,0.19921308629890652
0.63875,0.63125,0.68125,0.6075,0.7142499999999999,0.56625,0.855,0.85,0.74875,0.70175,0.71875,0.63425,0.4977141636402478,0.5003418073061312,0.5310373241370892,0.4997779751351424,0.4994138543567759,0.34719738833190184,0.2905245763013576,0.19921308629890652
0.63875,0.63125,0.68125,0.6075,0.7145,0.56625,0.855,0.85,0.74875,0.7020000000000001,0.71875,0.6345000000000001,0.4976683858760338,0.500335703604236,0.5310312204351939,0.4998312611027082,0.4994049733621816,0.34719738833190184,0.2905245763013576,0.19921308629890652
0.63875,0.63125,0.68125,0.6075,0.71475,0.56625,0.855,0.85,0.74875,0.7022499999999999,0.71875,0.63475,0.4976256599627674,0.5003448591570787,0.5310281685842464,0.499884547070274,0.49934280639134015,0.34719738833190184,0.2905245763013576,0.19921308629890652
0.63875,0.63125,0.68125,0.6075,0.715,0.56625,0.855,0.85,0.74875,0.7025,0.71875,0.635,0.49764397106845304,0.5003997924741356,0.5310495315408795,0.49992007104865127,0.49932504440215153,0.34719738833190184,0.2905245763013576,0.19921308629890652
0.63875,0.63125,0.68125,0.6075,0.715,0.56625,0.8552500000000001,0.8497499999999999,0.7482500000000001,0.7025,0.71875,0.635,0.4976378673665578,0.5004181035798212,0.5310312204351939,0.5000088809945943,0.49930728241296296,0.34719738833190184,0.2905245763013576,0.19921308629890652
0.63875,0.63125,0.68125,0.6075,0.715,0.56625,0.8554999999999999,0.8495,0.74775,0.7025,0.71875,0.635,0.4976256599627674,0.5003570665608692,0.5310556352427748,0.5000177619891886,0.49931616340755725,0.34719738833190184,0.2905245763013576,0.19921308629890652
0.63875,0.63125,0.68125,0.6075,0.715,0.56625,0.85575,0.84925,0.74725,0.7025,0.71875,0.635,0.49761955626087223,0.5003540147099216,0.5310800500503555,0.5000888099459431,0.49930728241296296,0.34719738833190184,0.2905245763013576,0.19921308629890652
0.63875,0.63125,0.68125,0.6075,0.715,0.56625,0.856,0.8490000000000001,0.74675,0.7025,0.71875,0.635,0.4976256599627674,0.500350962858974,0.5310922574541459,0.5001065719351316,0.49933392540542715,0.34719738833190184,0.2905245763013576,0.19921308629890652
0.63875,0.63125,0.68125,0.6075,0.715,0.56625,0.85625,0.84875,0.74625,0.7025,0.71875,0.635,0.49763481551561023,0.5003112887966552,0.5310495315408795,0.5001065719351316,0.49933392540542715,0.34719738833190184,0.2905245763013576,0.19921308629890652
0.63875,0.63125,0.68125,0.6075,0.715,0.56625,0.85625,0.84875,0.74625,0.7025,0.71875,0.635,0.4976531266212958,0.5002838221381267,0.5310159611804559,0.5000621669621601,0.49930728242164424,0.34719738833190184,0.2905245763013576,0.19921308629890652
0.63875,0.63125,0.68125,0.6075,0.715,0.56625,0.85625,0.84875,0.74625,0.7025,0.71875,0.635,0.4976531266212958,0.500320444349498,0.5309732352671895,0.5000710479567544,0.49930728242164424,0.34719738833190184,0.2905245763013576,0.19921308629890652
0.63875,0.63125,0.68125,0.6075,0.715,0.56625,0.85625,0.8484999999999999,0.746,0.7025,0.71825,0.635,0.4976683858760338,0.5003234962004456,0.5309823908200324,0.5000355239783772,0.49930728242164424,0.34719738833190184,0.2905245763013576,0.19921308629890652
0.63875,0.63125,0.68125,0.6075,0.715,0.56625,0.85625,0.8482500000000001,0.74575,0.7025,0.7177500000000001,0.635,0.4976836451307718,0.5003112887966552,0.5309427167577135,0.4999911190054057,0.4992984014357313,0.34719738833190184,0.2905245763013576,0.19921308629890652
0.63875,0.63125,0.68125,0.6075,0.715,0.56625,0.85625,0.848,0.7454999999999999,0.7025,0.7172499999999999,0.635,0.4976928006836146,0.50030518509476,0.5309274575029755,0.4999822380108114,0.4992895204498183,0.34719738833190184,0.2905245763013576,0.19921308629890652
0.63875,0.63125,0.68125,0.6075,0.715,0.56625,0.85625,0.84775,0.7452500000000001,0.7025,0.71675,0.635,0.4976866969817194,0.5003601184118167,0.5309762871181372,0.49995559502702847,0.4993428064173841,0.34719738833190184,0.2905245763013576,0.19921308629890652
0.63875,0.63125,0.68125,0.6075,0.715,0.56625,0.85625,0.8475,0.745,0.7025,0.71625,0.635,0.4976622821741386,0.5003448591570787,0.5310434278389844,0.4999378330378399,0.4993783303957613,0.34719738833190184,0.2905245763013576,0.19921308629890652
0.63875,0.63125,0.68125,0.6075,0.715,0.56625,0.85625,0.8475,0.745,0.7025,0.71625,0.635,0.4976561784722434,0.5003295999023407,0.5310434278389844,0.4999378330378399,0.49944937835251574,0.34719738833190184,0.2905245763013576,0.19921308629890652
0.63875,0.63125,0.68125,0.6072500000000001,0.715,0.56625,0.85625,0.8475,0.745,0.7025,0.71625,0.635,0.4976470229194006,0.5003540147099216,0.5310464796899319,0.49990230905946265,0.49952042630058885,0.34719738833190184,0.2905245763013576,0.19921308629890652
0.63875,0.63125,0.68125,0.607,0.715,0.56625,0.85625,0.8475,0.745,0.7025,0.71625,0.635,0.4976317636646626,0.500396740623188,0.5310892056031984,0.49992007104865127,0.4995648312648791,0.34719738833190184,0.2905245763013576,0.19921308629890652
0.63875,0.63125,0.68125,0.60675,0.715,0.56625,0.85625,0.8475,0.745,0.7025,0.71625,0.635,0.4976256599627674,0.5003387554551836,0.5310708944975128,0.49992895204324556,0.49955595027028477,0.345894930613012,0.29130784835869944,0.1989589366610511
0.63875,0.63125,0.68125,0.6065,0.715,0.56625,0.85625,0.8475,0.745,0.7025,0.71625,0.635,0.4976531266212958,0.5003387554551836,0.5310190130314035,0.49992007104865127,0.49953818828109614,0.34851371427849936,0.291047078454992,0.20024979162804205
0.63875,0.63125,0.68125,0.60625,0.715,0.56625,0.85625,0.8475,0.745,0.7025,0.71625,0.635,0.49762871181371504,0.5003479110080263,0.5310556352427748,0.49986678508108545,0.4994404973318775,0.34938941617256336,0.29143871448366293,0.2006319510102393
0.63875,0.63125,0.68125,0.60625,0.715,0.56625,0.85625,0.8475,0.745,0.7025,0.71625,0.635,0.4976378673665578,0.500335703604236,0.5311197241126744,0.49986678508108545,0.49932504440215153,0.34938941617256336,0.29143871448366293,0.2006319510102393
0.63875,0.63125,0.68125,0.60625,0.715,0.56625,0.85625,0.8475,0.745,0.7025,0.71625,0.635,0.4976256599627674,0.5003234962004456,0.5311044648579364,0.49984014209730254,0.4992184724670199,0.3506918738914531,0.29000317582352997,0.19986178338490243
0.63875,0.63125,0.68125,0.60625,0.715,0.56625,0.85625,0.8475,0.745,0.7025,0.71625,0.635,0.4976256599627674,0.5002838221381267,0.5310983611560411,0.4998046181189253,0.49912078152648254,0.3506918738914531,0.29000317582352997,0.19986178338490243
0.63875,0.63125,0.68125,0.6065,0.715,0.56625,0.85625,0.8475,0.7447499999999999,0.7022499999999999,0.71625,0.63475,0.49763481551561023,0.5002960295419172,0.5311319315164648,0.49978685612973667,0.4990497335697281,0.3502567960499226,0.2911773953621636,0.2007573072699567
0.63875,0.63125,0.68125,0.60675,0.715,0.56625,0.85625,0.8475,0.7445,0.7020000000000001,0.71625,0.6345000000000001,0.4976226081118198,0.5003173924985503,0.5310800500503555,0.49973357016217085,0.49906749557627933,0.3498217182083922,0.2906557178452728,0.20101839928672263
0.63875,0.63125,0.68125,0.607,0.715,0.56625,0.85625,0.8475,0.74425,0.70175,0.71625,0.63425,0.4975768303476058,0.5003418073061312,0.5310525833918271,0.4997513321513595,0.4991563055222224,0.35069742010245614,0.2907860347524443,0.2005023812992411
0.63875,0.63125,0.68125,0.6072500000000001,0.715,0.56625,0.85625,0.8475,0.7440000000000001,0.7015,0.71625,0.634,0.49755851924192024,0.5003479110080263,0.5310647907956175,0.4997424511567652,0.49926287745735404,0.35069742010245614,0.2907860347524443,0.2005023812992411
0.63875,0.63125,0.68125,0.6075,0.715,0.56625,0.85625,0.8475,0.74375,0.70125,0.71625,0.63375,0.49755241554002505,0.5004211554307688,0.5310861537522508,0.4997424511567652,0.49926287745735404,0.35331343336264204,0.2901343173674452,0.20216913631264133
0.63875,0.63125,0.68125,0.6075,0.715,0.56625,0.85625,0.8475,0.74375,0.70125,0.71625,0.63375,0.49753715628528705,0.5004364146855068,0.5310892056031984,0.49973357016217085,0.4992451154681654,0.35331343336264204,0.2901343173674452,0.20216913631264133
0.63875,0.63125,0.68125,0.6075,0.715,0.56625,0.85625,0.8475,0.74375,0.70125,0.71625,0.63375,0.4975249488814966,0.5004455702383496,0.5311136204107791,0.49990230905946265,0.4990941385687436,0.3524432776795811,0.2926147258655941,0.20049080120354731
0.63875,0.63125,0.68125,0.6075,0.715,0.56625,0.85625,0.8475,0.74375,0.70125,0.71625,0.63375,0.49752189703054905,0.5004730368968779,0.5310983611560411,0.4999644760216228,0.498863232691929,0.3524432776795811,0.2926147258655941,0.20049080120354731
0.639,0.6315,0.6815000000000001,0.6075,0.71525,0.56625,0.85625,0.8482500000000001,0.7440000000000001,0.70125,0.716,0.63375,0.49757377849665824,0.5004394665364543,0.5311075167088839,0.4999911190054057,0.49865896980757873,0.3515675757855171,0.29313626405289755,0.201520428680849
0.63925,0.6317499999999999,0.68175,0.6075,0.7155,0.56625,0.85625,0.8490000000000001,0.74425,0.70125,0.71575,0.63375,0.49757377849665824,0.5004242072817163,0.5310647907956175,0.5000088809945943,0.4985168738767072,0.35113249794398665,0.29300553563740994,0.19997794452134912
0.6395000000000001,0.632,0.682,0.6075,0.71575,0.56625,0.85625,0.8497499999999999,0.7445,0.70125,0.7155,0.63375,0.4976104007080294,0.5003753776665547,0.5310617389446699,0.5000444049729715,0.4984458259199528,0.3485275879066074,0.2924837220311548,0.20125855221907182
0.63975,0.63225,0.6822499999999999,0.6075,0.716,0.56625,0.85625,0.8504999999999999,0.7447499999999999,0.70125,0.71525,0.63375,0.4976500747703482,0.5003021332438123,0.5310647907956175,0.5001687388886105,0.4985346358485332,0.3546380813259443,0.2922225389990198,0.20151949902833308
0.64,0.6325,0.6825,0.6075,0.71625,0.56625,0.85625,0.85125,0.745,0.70125,0.715,0.63375,0.4976989043855098,0.5003082369457076,0.5310434278389844,0.5002042628669877,0.4987122557577819,0.3563756168863645,0.29391981314930266,0.20202674453561612
0.64,0.6325,0.6825,0.6075,0.71625,0.56625,0.85625,0.85125,0.745,0.70125,0.715,0.63375,0.4976775414288766,0.5003265480513932,0.5310251167332988,0.5001687388886105,0.498880994663755,0.35680236731079007,0.29157027077611725,0.2026738410942002
0.64,0.6325,0.6825,0.6075,0.71625,0.56625,0.85625,0.85125,0.745,0.70125,0.715,0.63375,0.49773552659688103,0.5003570665608692,0.5310403759880368,0.5001154529210446,0.49907637656219234,0.35680236731079007,0.29157027077611725,0.2026738410942002
0.64,0.6325,0.6825,0.6075,0.71625,0.56625,0.85625,0.85125,0.745,0.70125,0.715,0.63375,0.49773552659688103,0.5004394665364543,0.5310190130314035,0.49997335700753576,0.4992539964540784,0.3589999467628549,0.29222378000441396,0.20151221350543105
0.6402500000000001,0.63275,0.6825,0.6075,0.71675,0.5665,0.85675,0.8515,0.745,0.7015,0.7155,0.63425,0.49772026734214303,0.5005127109591968,0.5310342722861415,0.4996092362378506,0.4993960923675873,0.35899162474615015,0.2970546932219679,0.20277942479682892
0.6405,0.633,0.6825,0.6075,0.7172499999999999,0.56675,0.85725,0.85175,0.745,0.70175,0.716,0.63475,0.4977172154911954,0.5004364146855068,0.5310525833918271,0.4993428064000215,0.49952042629190757,0.35899162474615015,0.2970546932219679,0.20277942479682892
0.64075,0.63325,0.6825,0.6075,0.7177500000000001,0.5670000000000001,0.85775,0.852,0.745,0.7020000000000001,0.7165,0.63525,0.4977385784478286,0.500442518387402,0.5310556352427748,0.49917406749404836,0.4996092362378506,0.3603107264984493,0.2962712834551502,0.2031696963301252
0.6409999999999999,0.6335000000000001,0.6825,0.6075,0.71825,0.56725,0.8582500000000001,0.85225,0.745,0.7022499999999999,0.7170000000000001,0.63575,0.4977141636402478,0.5004181035798212,0.5310556352427748,0.4990586145556411,0.49969804618379365,0.36250275433911083,0.29692313854962515,0.20060155883614697
0.64125,0.63375,0.6825,0.6075,0.71875,0.5675,0.85875,0.8525,0.745,0.7025,0.7175,0.63625,0.4976989043855098,0.5003326517532883,0.5310861537522508,0.4989609236237851,0.4996625222054164,0.3659944694933607,0.29705428009354035,0.200220855585072
0.64125,0.63375,0.6825,0.6075,0.71875,0.5675,0.85875,0.8525,0.745,0.7025,0.7175,0.63625,0.4977172154911954,0.5003112887966552,0.5310312204351939,0.4989165186594949,0.499582593262749,0.3660000157043638,0.29614014191123494,0.19957722129257693
0.64125,0.6335000000000001,0.6827500000000001,0.6075,0.72,0.56775,0.85925,0.8532500000000001,0.7452500000000001,0.7025,0.7177500000000001,0.63625,0.4977080599383526,0.500335703604236,0.5310312204351939,0.49888987568439325,0.49946714034170436,0.3668812638094308,0.29587882116962405,0.19958198474770225
0.64125,0.63325,0.6829999999999999,0.6075,0.72125,0.568,0.8597499999999999,0.8540000000000001,0.7454999999999999,0.7025,0.718,0.63625,0.49764397106845304,0.5003112887966552,0.5310617389446699,0.4990053286228005,0.49927175846062966,0.3664434155625989,0.2954874605599048,0.19958010597350773
0.64125,0.633,0.68325,0.6075,0.7225,0.56825,0.8602500000000001,0.8547499999999999,0.74575,0.7025,0.71825,0.63625,0.4975798821985534,0.5002868739890743,0.5310922574541459,0.4991207815612078,0.49907637657955495,0.36253327200062824,0.2944431431799037,0.19791121097464762
0.64125,0.63275,0.6835,0.6075,0.72375,0.5685,0.86075,0.8554999999999999,0.746,0.7025,0.7184999999999999,0.63625,0.4975798821985534,0.500335703604236,0.5310281685842464,0.4992895204498183,0.4989520426552347,0.36297667185886345,0.29352872795853513,0.19765916968486283
0.64125,0.6325,0.68375,0.6075,0.725,0.56875,0.86125,0.85625,0.74625,0.7025,0.71875,0.63625,0.4976165044099246,0.5002960295419172,0.5310525833918271,0.4993872113816743,0.49888987568439325,0.3616658921232689,0.2936591809550711,0.19637175670358317
0.64125,0.6325,0.68375,0.6075,0.725,0.56875,0.86125,0.85625,0.74625,0.7025,0.71875,0.63625,0.4975920896023438,0.5002624591814936,0.5310708944975128,0.4994493783351531,0.4987921847351746,0.36036343440437923,0.29287604660720506,0.1970150859791969
0.64125,0.6325,0.68375,0.6075,0.725,0.56875,0.86125,0.85625,0.74625,0.7025,0.71875,0.63625,0.4976165044099246,0.5002380443739127,0.5310708944975128,0.4994138543567759,0.4987921847351746,0.3573178949140662,0.2924837220311548,0.19457864925831062
0.64125,0.6325,0.68375,0.6075,0.725,0.56875,0.86125,0.85625,0.74625,0.7025,0.71875,0.63625,0.4976531266212958,0.50022888882107,0.5310739463484604,0.4993516874032971,0.4988365896994648,0.3573095728973615,0.29313626405289755,0.19367845683029886
0.64125,0.6325,0.68375,0.6075,0.725,0.56875,0.86125,0.85625,0.74625,0.7025,0.71875,0.63625,0.4976165044099246,0.5003753776665547,0.5307138279366436,0.4991918295005996,0.49888987566703064,0.35425571139034373,0.2926140373182149,0.19302961778165872
0.64125,0.63275,0.68375,0.60775,0.7254999999999999,0.569,0.86175,0.856,0.7465,0.7027500000000001,0.71925,0.6367499999999999,0.49760429700613423,0.5003570665608692,0.5306588946195868,0.4990053286054379,0.49905861456432243,0.3529588052828572,0.2920916712539448,0.19316000357505744
0.64125,0.633,0.68375,0.608,0.726,0.5692499999999999,0.86225,0.85575,0.74675,0.703,0.7197499999999999,0.63725,0.4976012451551866,0.5003448591570787,0.5307596057008576,0.498774422745986,0.49930728241296296,0.3486135838793561,0.29835605910960533,0.18865451891076113
0.64125,0.63325,0.68375,0.6082500000000001,0.7265,0.5695,0.86275,0.8554999999999999,0.747,0.70325,0.7202500000000001,0.63775,0.4975707266457106,0.5003387554551836,0.5307290871913816,0.4985346359006211,0.49949378329944333,0.3486135838793561,0.29835605910960533,0.18865451891076113
0.64125,0.6335000000000001,0.68375,0.6085,0.727,0.56975,0.8632500000000001,0.8552500000000001,0.74725,0.7034999999999999,0.72075,0.63825,0.4975707266457106,0.500335703604236,0.5307382427442243,0.4983037300238065,0.49953818828109614,0.3438277384233214,0.2984869268546803,0.18903638219944327
0.64125,0.63375,0.68375,0.60875,0.7275,0.57,0.86375,0.855,0.7475,0.70375,0.72125,0.63875,0.49760429700613423,0.5001495406964324,0.5311319315164648,0.4981793961168489,0.4996003552432563,0.33946864879211247,0.3013578680855819,0.186462877706298
0.64125,0.63375,0.68375,0.60875,0.7275,0.57,0.86375,0.855,0.7475,0.70375,0.72125,0.63875,0.49762871181371504,0.5001281777397992,0.5311929685354168,0.49814387213847167,0.49952042629190757,0.3364120168797933,0.30148749482526266,0.18492743651638222
0.64125,0.63375,0.68375,0.60875,0.7275,0.57,0.86375,0.855,0.7475,0.70375,0.72125,0.63875,0.4976256599627674,0.500137333292642,0.5311288796655171,0.49832149203035775,0.49944049734055884,0.3359769390382628,0.3020093084315178,0.18286716916532172
0.6417499999999999,0.634,0.6835,0.609,0.7284999999999999,0.57025,0.86575,0.856,0.7497499999999999,0.7040000000000001,0.7215,0.6395000000000001,0.4976470229194006,0.5001464888454847,0.5311716055787835,0.49847246892977964,0.4994227353513702,0.33075878614599913,0.30226911274878276,0.1804324092260676
0.64225,0.63425,0.68325,0.60925,0.7295,0.5705,0.86775,0.857,0.752,0.7042499999999999,0.72175,0.6402500000000001,0.4976958525345622,0.5001495406964324,0.5310892056031984,0.4986412078357527,0.49952042629190757,0.31987631549833523,0.2992635823767351,0.1719703437342965
0.64275,0.6345000000000001,0.6829999999999999,0.6095,0.7304999999999999,0.57075,0.8697499999999999,0.858,0.75425,0.7045,0.722,0.6409999999999999,0.49772026734214303,0.5001709036530656,0.5310525833918271,0.4987921847351746,0.4997513321513595,0.31464984598976703,0.29926289382935584,0.16965722793441687
0.64325,0.63475,0.6827500000000001,0.60975,0.7315,0.5710000000000001,0.87175,0.8590000000000001,0.7565000000000001,0.70475,0.72225,0.6417499999999999,0.4976683858760338,0.5001709036530656,0.5310403759880368,0.4989786856303363,0.4999733570162171,0.3063695149741811,0.300957549879486,0.1631133900840388
0.64375,0.635,0.6825,0.61,0.7325,0.57125,0.87375,0.86,0.75875,0.705,0.7225,0.6425,0.4976805932798242,0.500122074037904,0.5309396649067659,0.4991563055222224,0.5000621669621601,0.30463197941376086,0.30160926564437357,0.16105885883502039
0.64375,0.635,0.6825,0.61,0.7325,0.57125,0.87375,0.86,0.75875,0.705,0.7225,0.6425,0.49764397106845304,0.5000701925717947,0.5309549241615039,0.49949378331680594,0.5000710479567544,0.30463197941376086,0.30160926564437357,0.16105885883502039
0.64375,0.635,0.6825,0.61,0.7325,0.57125,0.87375,0.86,0.75875,0.705,0.7225,0.6425,0.4975951414532914,0.5000030518509476,0.5310464796899319,0.499991119014087,0.499884547070274,0.2998267141186151,0.30200090167304455,0.16028824747501838
0.64375,0.635,0.6825,0.61,0.7325,0.57125,0.87375,0.86,0.75875,0.705,0.7225,0.6425,0.49753715628528705,0.49992370372631,0.5311136204107791,0.5005239786897453,0.49949378331680594,0.2976568819227663,0.3014771585140159,0.15772710833379328
0.64375,0.635,0.6825,0.61,0.7325,0.57125,0.87375,0.8597499999999999,0.759,0.706,0.7225,0.643,0.49753715628528705,0.4999633777886288,0.5311319315164648,0.5009502664302719,0.49911190054925086,0.2950464202739837,0.30134560222156165,0.15477689663520436
0.64375,0.635,0.6825,0.61,0.7325,0.57125,0.87375,0.8595,0.75925,0.7070000000000001,0.7225,0.6435,0.4975768303476058,0.5000640888698996,0.5312173833429975,0.5011722912864482,0.49885435170601605,0.292873806872033,0.3012143213480591,0.15221391765811
0.64375,0.635,0.6825,0.61,0.7325,0.57125,0.87375,0.85925,0.7595000000000001,0.708,0.7225,0.644,0.4976714377269814,0.500106814783166,0.5311410870693075,0.5010923623350995,0.49869449380331854,0.29333385076367763,0.2988632641706392,0.14759982751490056
0.64375,0.635,0.6825,0.61,0.7325,0.57125,0.87375,0.8590000000000001,0.7597499999999999,0.7090000000000001,0.7225,0.6445000000000001,0.49772026734214303,0.5002075258644367,0.5310190130314035,0.5006838365837615,0.49888987568439325,0.3090104942844811,0.2953410186831661,0.15210018124362681
0.64375,0.635,0.6825,0.61,0.7325,0.57125,0.87375,0.85875,0.76,0.71,0.7225,0.645,0.49783623767815177,0.5002624591814936,0.5308572649311808,0.5002042628583063,0.49912078153516387,0.3190450048938967,0.3063057290503688,0.1508160431377458
0.64375,0.635,0.6825,0.61,0.7325,0.57125,0.87375,0.85875,0.76,0.71,0.7225,0.645,0.497857600634785,0.5003631702627643,0.5308175908688619,0.49972468915021395,0.49936056838921006,0.3190450048938967,0.3063057290503688,0.1508160431377458
0.64375,0.635,0.6825,0.61,0.7325,0.57125,0.87375,0.85875,0.76,0.71,0.7225,0.645,0.4978606524857326,0.5003692739646596,0.5308389538254952,0.4991296625037142,0.4995737122594734,0.3190450048938967,0.3063057290503688,0.1508160431377458
0.644,0.635,0.6825,0.61,0.73225,0.5715,0.8725,0.8584999999999999,0.7602500000000001,0.7105,0.72275,0.6447499999999999,0.4977599414044618,0.5003448591570787,0.5308572649311808,0.498783303731899,0.49965364121950345,0.3155505139339452,0.3076106786246015,0.1510725526003559
0.64425,0.635,0.6825,0.61,0.732,0.57175,0.87125,0.8582500000000001,0.7605,0.711,0.723,0.6445000000000001,0.4977538377025666,0.5002990813928647,0.5309396649067659,0.4986767317967673,0.4996714032086921,0.3094372447089066,0.3098299040906154,0.1505561314389648
0.6445000000000001,0.635,0.6825,0.61,0.73175,0.5720000000000001,0.87,0.858,0.76075,0.7115,0.7232500000000001,0.64425,0.4977294228949858,0.5002838221381267,0.5310190130314035,0.49856127887572266,0.4998134991222009,0.3094372447089066,0.3098299040906154,0.1505561314389648
0.6447499999999999,0.635,0.6825,0.61,0.7315,0.57225,0.86875,0.85775,0.7609999999999999,0.7120000000000001,0.7234999999999999,0.644,0.4977416302987762,0.50015259254738,0.5309091463972899,0.49856127887572266,0.5001154529297259,0.32248955295281945,0.30774554156458783,0.16389319332245106
0.645,0.635,0.6825,0.61,0.73125,0.5725,0.8675,0.8575,0.76125,0.7125,0.72375,0.64375,0.4978301339762566,0.5000030518509476,0.5308481093783379,0.49901420961739484,0.5006483126053842,0.32378368865500456,0.30618065158372576,0.16927329523598938
0.645,0.635,0.6825,0.61,0.73125,0.5725,0.8675,0.8575,0.76125,0.7125,0.72375,0.64375,0.4980162968840602,0.5000518814661092,0.5308725241859188,0.4994671403156604,0.501936056812877,0.32378368865500456,0.30618065158372576,0.16927329523598938
0.645,0.635,0.6825,0.61,0.73125,0.5725,0.8675,0.8575,0.76125,0.7125,0.72375,0.64375,0.4979461043122654,0.5000518814661092,0.5308786278878139,0.4996447602075465,0.5033214920390391,0.32507782435718957,0.3070960307714254,0.1735115567197192
0.6445000000000001,0.63425,0.6822499999999999,0.61025,0.7304999999999999,0.5715,0.86775,0.85675,0.76125,0.7115,0.7240000000000001,0.643,0.49785149693288977,0.5000640888698996,0.5309823908200324,0.49980461811024396,0.5045381882810962,0.3167309118075657,0.3209359562236157,0.18515131890727224
0.644,0.6335000000000001,0.682,0.6104999999999999,0.7297499999999999,0.5705,0.868,0.856,0.76125,0.7105,0.72425,0.64225,0.4977416302987762,0.500061037018952,0.5311685537278359,0.49985790407780983,0.505586145695312,0.37368436935492794,0.3131201836363961,0.24423969048781885
0.6435,0.63275,0.68175,0.61075,0.7290000000000001,0.5695,0.8682500000000001,0.8552500000000001,0.76125,0.7095,0.7245,0.6415000000000001,0.49753715628528705,0.5001159703360087,0.5312540055543687,0.4996358792129522,0.5062877442769433,0.37368436935492794,0.3131201836363961,0.24423969048781885
0.643,0.632,0.6815000000000001,0.611,0.7282500000000001,0.5685,0.8684999999999999,0.8545,0.76125,0.7084999999999999,0.7247499999999999,0.64075,0.497308267464217,0.5000396740623188,0.5312021240882595,0.4993339254141085,0.5063410301924213,0.383264382283702,0.31116296745937233,0.2474646972488101
0.6425,0.63125,0.68125,0.61125,0.7275,0.5675,0.86875,0.85375,0.76125,0.7075,0.725,0.64,0.497323526718955,0.5000244148075808,0.5312295907467879,0.4992451154681654,0.5063232680816943,0.39589825671949386,0.30698748978266566,0.2537800133690846
0.64225,0.6305,0.6809999999999999,0.6125,0.72675,0.5642499999999999,0.8675,0.8534999999999999,0.7617499999999999,0.7092499999999999,0.728,0.6467499999999999,0.49728690450758384,0.5000549333170567,0.5312723166600544,0.49894316165195907,0.5065186499106811,0.4019976577168246,0.3071182198182648,0.25584864029185267
0.642,0.62975,0.6807500000000001,0.61375,0.726,0.561,0.86625,0.8532500000000001,0.76225,0.711,0.731,0.6535,0.49728995635853146,0.5000518814661092,0.5312479018524735,0.4986500888216657,0.5067761987105093,0.4094106088550513,0.30881563167802356,0.2600971595906471
0.6417499999999999,0.629,0.6805,0.615,0.7252500000000001,0.55775,0.865,0.853,0.76275,0.7127500000000001,0.7340000000000001,0.66025,0.49720450453199866,0.5000579851680044,0.5312601092562639,0.49822380111586434,0.5072024864510359,0.45297656071862735,0.2965502455906742,0.28201283424074347
0.6415000000000001,0.62825,0.68025,0.61625,0.7245,0.5545,0.86375,0.85275,0.76325,0.7145,0.737,0.667,0.49714346751304667,0.5000885036774804,0.5313730277413251,0.49777087041759877,0.5076376552469261,0.4621159495948679,0.29067652979735364,0.2894947969376721
0.64125,0.6275,0.68,0.6175,0.72375,0.55125,0.8625,0.8525,0.76375,0.71625,0.74,0.67375,0.4969664601580859,0.5001037629322184,0.5313974425489059,0.4973801066554494,0.5080461810156267,0.4621159495948679,0.29067652979735364,0.2894947969376721
0.64125,0.6275,0.68,0.6175,0.72375,0.55125,0.8625,0.8525,0.76375,0.71625,0.74,0.67375,0.4968749046296579,0.5000549333170567,0.5313638721884824,0.49729129672686895,0.5083481349533715,0.46559656692671136,0.28989339544948756,0.2928523067634989
0.64075,0.627,0.6807500000000001,0.6175,0.722,0.5505,0.866,0.851,0.77,0.721,0.7434999999999999,0.6895,0.4968230231635487,0.5000244148075808,0.5313241981261635,0.4965719362081369,0.5088099466375501,0.4690882766805611,0.28937130642428066,0.29555987428813607
0.6402500000000001,0.6265,0.6815000000000001,0.6175,0.7202500000000001,0.54975,0.8695,0.8495,0.77625,0.72575,0.747,0.70525,0.4968535416730247,0.4999603259376812,0.5313272499771111,0.49580817058621357,0.509316163320744,0.47343626848936365,0.28767513394980465,0.2972373065148128
0.63975,0.626,0.6822499999999999,0.6175,0.7184999999999999,0.5489999999999999,0.873,0.848,0.7825,0.7304999999999999,0.7505,0.721,0.49688711203344826,0.4999664296395764,0.5313821832941679,0.49492895207797083,0.5100355238047509,0.48779658066316933,0.2829760524436567,0.3075507587677817
0.63925,0.6255,0.6829999999999999,0.6175,0.71675,0.54825,0.8765000000000001,0.8465,0.78875,0.7352500000000001,0.754,0.73675,0.49694814905240026,0.4999298074282052,0.5313516647846919,0.49376554184688615,0.5108525753421522,0.5161098690250661,0.2751460860597548,0.32547318323379054
0.63875,0.625,0.68375,0.6175,0.715,0.5475,0.88,0.845,0.795,0.74,0.7575,0.7525,0.49682607501449627,0.4997314371166112,0.5312295907467879,0.4923001777822325,0.5116074597698109,0.5161098690250661,0.2751460860597548,0.32547318323379054
0.63875,0.625,0.68375,0.6175,0.715,0.5475,0.88,0.845,0.795,0.74,0.7575,0.7525,0.4966216010010071,0.49958800012207405,0.5311807611316264,0.4916341032137036,0.5118650087085402,0.5239523517938202,0.2743629517118888,0.32728273400934077
0.63875,0.625,0.68375,0.6175,0.715,0.5475,0.88,0.845,0.795,0.74,0.7575,0.7525,0.49642323068941313,0.49935300759910883,0.5309884945219275,0.49160746032541514,0.5117229127950313,0.5352809981054207,0.27344991196516727,0.33115679235733086
0.6385000000000001,0.62525,0.6835,0.61775,0.71575,0.5465,0.8817499999999999,0.847,0.7975,0.7434999999999999,0.75875,0.7559999999999999,0.4963133640552995,0.49913327433088167,0.5307077242347483,0.4920159860941158,0.5109413853401831,0.5413803937023514,0.27266663990782536,0.3351522165979129
0.63825,0.6255,0.68325,0.618,0.7165,0.5455,0.8835,0.8490000000000001,0.8,0.747,0.76,0.7595000000000001,0.49601733451338237,0.4989104892117069,0.5303933835871456,0.49307282439006883,0.5093694493056725,0.5514038118897608,0.27031820083055824,0.3405539958016179
0.638,0.62575,0.6829999999999999,0.6182500000000001,0.7172499999999999,0.5445,0.8852500000000001,0.851,0.8025,0.7505,0.76125,0.763,0.4959044160283212,0.4990142521439253,0.530237739188818,0.4946092364114769,0.5071758437016486,0.5514038118897608,0.27031820083055824,0.3405539958016179
0.63775,0.626,0.6827500000000001,0.6185,0.718,0.5435,0.887,0.853,0.805,0.754,0.7625,0.7665000000000001,0.4957823419904172,0.4990203558458205,0.5300332651753288,0.49650976919388884,0.5048579040517659,0.5806038837669273,0.263795664411566,0.3547079594129222
0.6375,0.62625,0.6825,0.61875,0.71875,0.5425,0.88875,0.855,0.8075,0.7575,0.76375,0.77,0.4958281197546312,0.49923398541215247,0.530481887264626,0.49864120782707144,0.5030994671220935,0.6028371963710044,0.26118659314006726,0.36294193555224336
0.6375,0.62625,0.6825,0.61875,0.71875,0.5425,0.88875,0.855,0.8075,0.7575,0.76375,0.77,0.4957823419904172,0.49936216315195164,0.5309671315652944,0.5004529306895843,0.5017673179329479,0.61983848245471,0.25727285095351055,0.3716952921656765
0.6375,0.62625,0.6825,0.61875,0.71875,0.5425,0.88875,0.855,0.8075,0.7575,0.76375,0.77,0.49623706778160953,0.4996215704824976,0.5327829828791162,0.502460035519985,0.5026998224261191,0.6616863185969769,0.2444859266788577,0.38880916879706906
0.6375,0.62625,0.6825,0.61875,0.71875,0.5425,0.88875,0.855,0.8075,0.7575,0.76375,0.77,0.4968199713126011,0.499801629688406,0.5349009674367504,0.5043960922547301,0.507362344753074,0.87961037970311,0.18290126080720673,0.5016200103651226
0.637,0.626,0.68175,0.6182500000000001,0.7190000000000001,0.541,0.8897499999999999,0.8554999999999999,0.80825,0.75825,0.7645000000000001,0.77075,0.497323526718955,0.5000274666585284,0.5388775292214728,0.5066163409640755,0.518552397594645,0.87961037970311,0.18290126080720673,0.5016200103651226
0.6365,0.62575,0.6809999999999999,0.61775,0.71925,0.5395,0.89075,0.856,0.809,0.759,0.7652500000000001,0.7715000000000001,0.497369304483169,0.49951170384838406,0.5440931424909208,0.5091385435330338,0.5320071044310601,0.9009513409793135,0.17598695065006767,0.5173068906649207
0.636,0.6255,0.68025,0.61725,0.7195,0.5379999999999999,0.8917499999999999,0.8565,0.80975,0.7597499999999999,0.7659999999999999,0.77225,0.4978911709952086,0.4990722373119297,0.5493545335245826,0.5138010659988896,0.5511634093629532,0.941879083937891,0.1685545450425216,0.5503384894014293
0.6355,0.62525,0.6795,0.61675,0.7197499999999999,0.5365,0.89275,0.857,0.8105,0.7605,0.7667499999999999,0.773,0.4981872005371258,0.49981078524124883,0.5545182653279214,0.5184191829795765,0.5828774413804231,0.9583981358855393,0.16868899647419186,0.5685879276576796
0.635,0.625,0.67875,0.61625,0.72,0.535,0.89375,0.8575,0.81125,0.76125,0.7675,0.77375,0.497827082125309,0.5021332438123722,0.5621173741874447,0.5224511546122038,0.6180550608208808,0.9727639996707483,0.17038957727200685,0.584266837769023
0.635,0.625,0.67875,0.61625,0.72,0.535,0.89375,0.8575,0.81125,0.76125,0.7675,0.77375,0.49810480056154055,0.5023071993163853,0.5686544389172032,0.5265896977979849,0.6552042634399545,0.9871187602331509,0.17221827000526815,0.6035842009679134
0.635,0.625,0.67875,0.61625,0.72,0.535,0.89375,0.8575,0.81125,0.76125,0.7675,0.77375,0.4989715262306589,0.5044740134891812,0.5764152958769494,0.5285523976988208,0.6937211369173212,0.9870937941830363,0.1692154970629606,0.6065587474973689
0.63625,0.627,0.6809999999999999,0.6185,0.72225,0.54175,0.9,0.861,0.81475,0.7667499999999999,0.7705,0.77625,0.49793694875942257,0.5103457747123631,0.5838648640400403,0.5383747777027589,0.7241563061299144,0.9770509615569161,0.16542834714728136,0.602216633444055
0.6375,0.629,0.68325,0.62075,0.7245,0.5485,0.90625,0.8645,0.81825,0.77225,0.7735,0.77875,0.4939054536576434,0.5171605578783532,0.5843684194463943,0.5590763752426323,0.7332770869271665,0.9770509615569161,0.16542834714728136,0.602216633444055
0.63875,0.631,0.6855,0.623,0.72675,0.55525,0.9125,0.868,0.82175,0.77775,0.7765000000000001,0.78125,0.4833704641865291,0.5248725852229377,0.5786736655781731,0.5979751304892028,0.7228063946043276,0.6729983154747678,0.20910725417471335,0.4424193447105582
0.64,0.633,0.6877500000000001,0.62525,0.7290000000000001,0.562,0.91875,0.8715,0.82525,0.78325,0.7795000000000001,0.78375,0.46603900265511033,0.5307229834894863,0.563701284829249,0.6467317894055613,0.700133213885838,0.18659853212154257,0.3168396631156388,0.08732391407889914
0.64125,0.635,0.69,0.6275,0.73125,0.56875,0.925,0.875,0.82875,0.78875,0.7825,0.78625,0.44842066713461715,0.5352305673390911,0.5456648457289346,0.6966873821841291,0.6735612784763821,0.18659853212154257,0.3168396631156388,0.08732391407889914
0.64125,0.635,0.69,0.6275,0.73125,0.56875,0.925,0.875,0.82875,0.78875,0.7825,0.78625,0.4430860316782128,0.5228125858333079,0.5198370311593982,0.7360568303091426,0.6200177618329249,0.14956982410172906,0.32910311965021466,0.055289756237776946
0.6425,0.63725,0.69025,0.62925,0.7334999999999999,0.5725,0.9255,0.87775,0.82875,0.7879999999999999,0.7829999999999999,0.7875,0.43820001831110567,0.50803552354503,0.5042298654133732,0.7093872045581602,0.5723889883358676,0.13097525794768525,0.3156497317358656,0.008222443905318845
0.64375,0.6395000000000001,0.6905,0.631,0.73575,0.57625,0.9259999999999999,0.8805,0.82875,0.7872499999999999,0.7835,0.78875,0.44485000152592546,0.495577867976928,0.4925046540726951,0.647078147942981,0.544689165840298,0.13097525794768525,0.3156497317358656,0.008222443905318845
0.645,0.6417499999999999,0.69075,0.63275,0.738,0.58,0.9265000000000001,0.88325,0.82875,0.7865000000000001,0.784,0.79,0.4586413159581286,0.48872035889767146,0.49076509903256327,0.5677975109272068,0.5216696275740587,0.15325572684628908,0.2997243388416178,0.0006465392538036074
0.64625,0.644,0.691,0.6345000000000001,0.7402500000000001,0.58375,0.927,0.8859999999999999,0.82875,0.7857500000000001,0.7845,0.79125,0.47347331156346323,0.48317514572588277,0.4905178991058077,0.48361456468702485,0.49900532902214106,0.1567418903891357,0.300899386257218,0.0007737434615413165
0.6475,0.64625,0.69125,0.63625,0.7425,0.5875,0.9275,0.88875,0.82875,0.785,0.785,0.7925,0.4790581987975707,0.4914853358561968,0.4990722373119297,0.3990408531220567,0.5066163412418776,0.1584794205491557,0.30024739345326723,0.0005161404809631031
0.6475,0.64625,0.69125,0.63625,0.7425,0.5875,0.9275,0.88875,0.82875,0.785,0.785,0.7925,0.48837244788964507,0.5000823999755852,0.503781243324076,0.37047957421160876,0.5169715806783972,0.15671969474432298,0.30024739345326723,0.0001299931652855656
0.6475,0.64625,0.69125,0.63625,0.7425,0.5875,0.9275,0.88875,0.82875,0.785,0.785,0.7925,0.4951322977385785,0.50397961363567,0.508615375225074,0.36288632382479713,0.5227886322157984,0.15541446662013178,0.2995948514315244,0.00128791106735711
0.64825,0.64625,0.6915,0.636,0.7432500000000001,0.58725,0.92825,0.89,0.8295,0.78625,0.7845,0.7929999999999999,0.5025452436902982,0.5062501907406842,0.5120212408825953,0.36335701614763605,0.5293694489584199,0.15498215918390276,0.30037812348886633,0.0010279223031406646
0.649,0.64625,0.69175,0.63575,0.7440000000000001,0.5870000000000001,0.929,0.89125,0.83025,0.7875,0.784,0.7935,0.5103122043519395,0.507266457106235,0.5135868404187139,0.37266429771851134,0.5382060390398626,0.15759539663838698,0.30129226329128317,0.0025718561040419543
0.6497499999999999,0.64625,0.6920000000000001,0.6355,0.7447499999999999,0.58675,0.92975,0.8925,0.831,0.78875,0.7835,0.794,0.5176427503280739,0.5078279976805933,0.5139408551286355,0.38722912961712647,0.5473268203927188,0.15759539663838698,0.30129226329128317,0.0025718561040419543
0.6505,0.64625,0.6922499999999999,0.63525,0.7454999999999999,0.5865,0.9305,0.89375,0.83175,0.79,0.7829999999999999,0.7945,0.5235755485702078,0.5081026642658772,0.5135593737601856,0.405381882324808,0.5536856121402629,0.1536630628320038,0.3011620840935875,0.0011573808776688137
0.65125,0.64625,0.6925,0.635,0.74625,0.58625,0.93125,0.895,0.8325,0.79125,0.7825,0.795,0.5275215918454542,0.508203375347148,0.5125705740531632,0.42047069121163055,0.5576820592736342,0.15672247055002458,0.30155372012225845,0.001410868563994555
0.65125,0.64625,0.6925,0.635,0.74625,0.58625,0.93125,0.895,0.8325,0.79125,0.7825,0.795,0.5294442579424421,0.5084933011871701,0.5115817743461409,0.4420870323146071,0.554609235230818,0.15672247055002458,0.30155372012225845,0.001410868563994555
0.65125,0.64625,0.6925,0.635,0.74625,0.58625,0.93125,0.895,0.8325,0.79125,0.7825,0.795,0.5293649098178045,0.5081026642658772,0.510742515335551,0.4652664290217855,0.5434458245483049,0.15890617637398144,0.30011831917160137,0.001284985825670833
0.65125,0.64625,0.6925,0.635,0.74625,0.58625,0.93125,0.895,0.8325,0.79125,0.7825,0.795,0.5274941251869258,0.5067995239112522,0.5101565599536119,0.48930728115417216,0.5248579031836343,0.15671691893862133,0.3006401327778565,0.0020566314849379814
0.6517499999999999,0.6465000000000001,0.6927500000000001,0.63475,0.74625,0.5865,0.9315000000000001,0.8945000000000001,0.8327500000000001,0.7915000000000001,0.782,0.7955,0.5244758445997497,0.5045625171666616,0.5092837305825983,0.5116873884346763,0.5010124331580365,0.15758429881598063,0.30103163109705156,0.0012844690816458716
0.65225,0.6467499999999999,0.693,0.6345000000000001,0.74625,0.58675,0.93175,0.894,0.833,0.79175,0.7815000000000001,0.7959999999999999,0.520395519882809,0.5016296884060183,0.5081057161168249,0.5347868553657809,0.4740763769788955,0.15932461018210248,0.3003797776226881,0.0016732820501744665
0.65275,0.647,0.69325,0.63425,0.74625,0.5870000000000001,0.932,0.8935,0.83325,0.792,0.7809999999999999,0.7965000000000001,0.5156376842555009,0.49801324503311256,0.5063875240333262,0.5495825923425295,0.4472646533524269,0.15932461018210248,0.3003797776226881,0.0016732820501744665
0.65325,0.64725,0.6934999999999999,0.634,0.74625,0.58725,0.9322499999999999,0.893,0.8334999999999999,0.7922499999999999,0.7805,0.797,0.5099765007477035,0.4945982238227485,0.5042451246681112,0.5575488448321919,0.42183836484794446,0.15932461018210248,0.3003797776226881,0.0016732820501744665
0.65375,0.6475,0.69375,0.63375,0.74625,0.5875,0.9325,0.8925,0.83375,0.7925,0.78,0.7975,0.5038758507034516,0.49195226905117956,0.5017731254005554,0.5585168734773667,0.40080816853742307,0.15540336879772543,0.3010323196444309,0.0020591730218773125
0.65375,0.6475,0.69375,0.63375,0.74625,0.5875,0.9325,0.8925,0.83375,0.7925,0.78,0.7975,0.49721060823389385,0.49107943968016604,0.4988921781060213,0.5537122550285514,0.3891740654626205,0.1593329321988072,0.30181531628282104,0.0015432604923600564
0.65375,0.6475,0.69375,0.63375,0.74625,0.5875,0.9325,0.8925,0.83375,0.7925,0.78,0.7975,0.4899349955748161,0.4916074098941008,0.49613635670033873,0.5467939609601374,0.3876110108307261,0.1593329321988072,0.30181531628282104,0.0015432604923600564
0.65375,0.6475,0.69375,0.63375,0.74625,0.5875,0.9325,0.8925,0.83375,0.7925,0.78,0.7975,0.4826715903195288,0.49281289101840264,0.49388714255195776,0.5372380109502921,0.4008525746476469,0.15627907069178942,0.30142354254467424,0.0018037011033927403
0.65375,0.6475,0.69375,0.63375,0.74625,0.5875,0.9325,0.8925,0.83375,0.7925,0.78,0.7975,0.476448866237373,0.49503463850825524,0.49168065431684316,0.5269626999008358,0.42273534643922156,0.15627074867508475,0.3012930895481383,0.0014144646805767105
0.65375,0.64775,0.6934999999999999,0.6335000000000001,0.74625,0.58725,0.9327500000000001,0.89325,0.8342499999999999,0.79375,0.78125,0.79875,0.4712820825830866,0.49714346751304667,0.4900173955504013,0.5185435169212593,0.44643872207922203,0.15671137272761826,0.3007712759418832,0.0015448804889345378
0.65375,0.648,0.69325,0.63325,0.74625,0.5870000000000001,0.9329999999999999,0.894,0.83475,0.795,0.7825,0.8,0.4684438612018189,0.499908444471572,0.4888943144016846,0.5065008880777562,0.47796625304526663,0.1593329321988072,0.3005103683286999,0.0006428384904721993
0.65375,0.64825,0.693,0.633,0.74625,0.58675,0.93325,0.8947499999999999,0.83525,0.79625,0.78375,0.80125,0.4674916837061678,0.5028321176793725,0.4884212775048067,0.49496447577854596,0.5071314388415341,0.15627907069178942,0.3009015912289432,0.0012918024662393135
0.65375,0.6485,0.6927500000000001,0.63275,0.74625,0.5865,0.9335,0.8955,0.83575,0.7975,0.785,0.8025,0.4683858760338145,0.5062318796349986,0.48958708456678973,0.4877087029953289,0.5301865007736233,0.1562679728693831,0.3009014535194674,0.0015398071496372555
0.65375,0.64875,0.6925,0.6325,0.74625,0.58625,0.93375,0.89625,0.83625,0.79875,0.78625,0.80375,0.4708487197485275,0.50887478255562,0.49191869869075594,0.48470692683981664,0.5502753104938521,0.1562679728693831,0.3009014535194674,0.0015398071496372555
0.65375,0.64875,0.6925,0.6325,0.74625,0.58625,0.93375,0.89625,0.83625,0.79875,0.78625,0.80375,0.4752220221564379,0.5111178930021057,0.4941465498825037,0.4825666071512706,0.5705506209877043,0.15844890828803845,0.30011914542845647,0.0014171481801602641
0.65375,0.64875,0.6925,0.6325,0.74625,0.58625,0.93375,0.89625,0.83625,0.79875,0.78625,0.80375,0.4752708517715995,0.5212897122104556,0.49755241554002505,0.46965364099378926,0.5347868546712756,0.15670305071091356,0.30064123607377485,0.0015447360926450012
0.65375,0.64875,0.6925,0.6325,0.74625,0.58625,0.93375,0.89625,0.83625,0.79875,0.78625,0.80375,0.4714651936399426,0.5161626026184881,0.5104586931974242,0.4484635884647456,0.4624511535009954,0.15670305071091356,0.30064123607377485,0.0015447360926450012
0.65275,0.6475,0.693,0.63225,0.7440000000000001,0.5835,0.93325,0.89425,0.8370000000000001,0.79875,0.78675,0.8045,0.45578783532212286,0.5203283791619617,0.5322244941557055,0.452380107167647,0.35747779472247126,0.15540059299202377,0.30024918529656486,0.0007708385002327678
0.6517499999999999,0.64625,0.6934999999999999,0.632,0.74175,0.58075,0.9327500000000001,0.89225,0.8377500000000001,0.79875,0.7872499999999999,0.80525,0.4673085726493118,0.5186498611407819,0.5519852290414137,0.4471847253386602,0.24029307010436024,0.1562679728693831,0.30116249884212654,0.0012888691124019612
0.65075,0.645,0.6940000000000001,0.6317499999999999,0.7395,0.578,0.9322499999999999,0.8902500000000001,0.8384999999999999,0.79875,0.7877500000000001,0.8059999999999999,0.47542649616992705,0.5183080538346507,0.5717184972685934,0.42904973453335415,0.12693605395672425,0.15670305071091356,0.299988279303493,0.0014148678544863348
0.6497499999999999,0.64375,0.6945,0.6315,0.73725,0.57525,0.93175,0.88825,0.8392499999999999,0.79875,0.78825,0.80675,0.49280068361461227,0.46555375835444196,0.610757774590289,0.4122113680185971,0.09123445475003811,0.15627351908038617,0.30064123607377485,0.0010269812936132183
0.64875,0.6425,0.695,0.63125,0.735,0.5725,0.93125,0.88625,0.84,0.79875,0.78875,0.8075,0.48206122013000885,0.47703176976836453,0.6281136509292886,0.4410124330451794,0.09563054631894441,0.15627351908038617,0.30064123607377485,0.0010269812936132183
0.64875,0.6425,0.695,0.63125,0.735,0.5725,0.93125,0.88625,0.84,0.79875,0.78875,0.8075,0.5384990997039705,0.47908261360515153,0.6001037629322183,0.4449555947231824,0.16961811545277522,0.15627351908038617,0.30064123607377485,0.0010269812936132183
0.64875,0.6425,0.695,0.63125,0.735,0.5725,0.93125,0.88625,0.84,0.79875,0.78875,0.8075,0.5390728476821192,0.4911832026123844,0.5843653675954467,0.4359502657010414,0.31974245078346863,0.15409258906213097,0.30037991533216396,0.00026520244372780886
0.64875,0.6425,0.695,0.63125,0.735,0.5725,0.93125,0.88625,0.84,0.79875,0.78875,0.8075,0.5328867458113346,0.4819635608996857,0.5751335184789574,0.44216696222958185,0.43651865074408736,0.15749552703753023,0.3096530057381513,0.026225273579375444
0.64875,0.6425,0.695,0.63125,0.735,0.5725,0.93125,0.88625,0.84,0.79875,0.78875,0.8075,0.5173558763389996,0.5261085848567156,0.5414197210608234,0.4752753110494563,0.5155150995442712,0.46035945862975364,0.2688739799930003,0.2167439640014664
0.64625,0.6402500000000001,0.6927500000000001,0.6295000000000001,0.732,0.568,0.9272499999999999,0.88,0.83575,0.787,0.78325,0.78975,0.5328165532395398,0.5169225135044404,0.5166508987701041,0.4706394318191415,0.5836678533631612,0.46035945862975364,0.2688739799930003,0.2167439640014664
0.64375,0.638,0.6905,0.62775,0.7290000000000001,0.5635,0.92325,0.87375,0.8315,0.7752500000000001,0.77775,0.772,0.49383220923490095,0.5052034058656575,0.5225745414593951,0.4634369450903035,0.5994671424425828,0.8480088254636128,0.32688629842963807,0.32822579185497464
0.64125,0.63575,0.68825,0.626,0.726,0.5589999999999999,0.91925,0.8675,0.8272499999999999,0.7635,0.77225,0.75425,0.48534195989867857,0.49292886135441144,0.5254432813501388,0.48136767363631394,0.5420692724957474,0.6326748718979169,0.6451622681382517,1.0
0.63875,0.6335000000000001,0.6859999999999999,0.62425,0.723,0.5545,0.91525,0.86125,0.823,0.7517499999999999,0.7667499999999999,0.7365,0.4866084780419324,0.5005218665120396,0.5240516373180334,0.4957548844276588,0.5161012432949685,0.27017998594189424,0.9908765236490306,0.9342631219170907
0.63625,0.63125,0.68375,0.6225,0.72,0.55,0.91125,0.855,0.81875,0.74,0.76125,0.71875,0.49166539506210516,0.49852900784325693,0.5246894741660817,0.5006483123189008,0.5014920072307442,0.35692720836216113,1.0,0.8175365052640203
0.63625,0.63125,0.68375,0.6225,0.72,0.55,0.91125,0.855,0.81875,0.74,0.76125,0.71875,0.49626148258919034,0.5004211554307688,0.5277016510513627,0.5033303727558313,0.49086145632806516,0.944901498914557,0.5950123021140147,0.6791959754359392
0.63625,0.63125,0.68375,0.6225,0.72,0.55,0.91125,0.855,0.81875,0.74,0.76125,0.71875,0.4987578966643269,0.5030884731589709,0.5339609973448897,0.5042362342912635,0.49152753089659407,0.7228194860825801,0.28567236509827854,0.5266081849579797
0.63625,0.63125,0.68375,0.6225,0.72,0.55,0.91125,0.855,0.81875,0.74,0.76125,0.71875,0.4982482375560778,0.5015106662190618,0.5329508346812342,0.5004529306809029,0.4979484900316828,0.7260786438031146,0.13525844322110722,0.3724705517882582
0.6355,0.63025,0.6825,0.622,0.7177500000000001,0.54825,0.91,0.8540000000000001,0.81875,0.74125,0.7617499999999999,0.7202500000000001,0.4966765343180639,0.5005554368724632,0.5302774132511369,0.498188277050674,0.501669626949004,0.853149293599032,0.030566089227882797,0.3510047527016579
0.63475,0.62925,0.68125,0.6214999999999999,0.7155,0.5465,0.90875,0.853,0.81875,0.7425,0.76225,0.72175,0.4955809198278756,0.499801629688406,0.5299264503921628,0.495444049833891,0.4991918294485117,0.7457985885535644,0.0,0.3093631212149028
0.634,0.62825,0.68,0.621,0.71325,0.5447500000000001,0.9075,0.852,0.81875,0.74375,0.76275,0.7232500000000001,0.4957029938657796,0.4988189336832789,0.52999359111301,0.49587033759178023,0.4956216696389639,0.7337407964084659,0.2840673676376008,0.40866444711290234
0.63325,0.62725,0.67875,0.6204999999999999,0.711,0.5429999999999999,0.90625,0.851,0.81875,0.745,0.76325,0.7247499999999999,0.49640797143467513,0.4991607409894101,0.5309884945219275,0.4986767318488552,0.49305506220989126,0.7337407964084659,0.2840673676376008,0.40866444711290234
0.6325,0.62625,0.6775,0.62,0.70875,0.54125,0.905,0.85,0.81875,0.74625,0.76375,0.72625,0.4971007415997803,0.5000823999755852,0.5314493240150151,0.5001776198918861,0.4927442274251346,0.6991838515591565,0.25835176581418157,0.3903398749243883
0.6325,0.62625,0.6775,0.62,0.70875,0.54125,0.905,0.85,0.81875,0.74625,0.76375,0.72625,0.49742728965117344,0.5006653035065768,0.5314981536301767,0.5007193605881826,0.4935612788930853,0.5820755738268135,0.23027338692689112,0.36928484353205093
0.6325,0.62625,0.6775,0.62,0.70875,0.54125,0.905,0.85,0.81875,0.74625,0.76375,0.72625,0.49738761558885464,0.5004333628345592,0.5315500350962858,0.5008792184735175,0.4955328597103835,0.5375146360296059,0.23039984472851568,0.3677109969851872
0.63275,0.62625,0.6779999999999999,0.62025,0.7092499999999999,0.5415,0.9045000000000001,0.8495,0.8170000000000001,0.7447499999999999,0.763,0.72225,0.49741813409833063,0.5002380443739127,0.5314798425244911,0.5012966252281311,0.49795737122594735,0.516980024708127,0.24188705724935283,0.3692174915863365
0.633,0.62625,0.6785,0.6204999999999999,0.70975,0.54175,0.904,0.8490000000000001,0.81525,0.7432500000000001,0.76225,0.71825,0.49733573412274545,0.5000701925717947,0.5313821832941679,0.5015186500843074,0.500488454711368,0.5432316670913362,0.27126308062820953,0.3710852738161205
0.63325,0.62625,0.679,0.62075,0.71025,0.542,0.9035,0.8484999999999999,0.8134999999999999,0.74175,0.7615000000000001,0.7142499999999999,0.49724417859431747,0.5000213629566332,0.5312845240638447,0.5020337477794583,0.5026287743999142,0.5572373565857572,0.28040254423927036,0.37158262168784767
0.6335000000000001,0.62625,0.6795,0.621,0.71075,0.54225,0.903,0.848,0.81175,0.7402500000000001,0.76075,0.71025,0.49705801568651387,0.5001556443983276,0.5311624500259408,0.5022557726356347,0.5042007104344247,0.5572373565857572,0.28040254423927036,0.37158262168784767
0.63375,0.62625,0.68,0.62125,0.71125,0.5425,0.9025,0.8475,0.81,0.73875,0.76,0.70625,0.4968657490768151,0.5002349925229652,0.5309640797143468,0.5014920071265684,0.5047690940884602,0.5564060405809184,0.2837973663386764,0.36951057549339145
0.63375,0.62625,0.68,0.62125,0.71125,0.5425,0.9025,0.8475,0.81,0.73875,0.76,0.70625,0.4966521195104831,0.5000946073793756,0.5308450575273904,0.5005239786897453,0.504520426274545,0.5010181158476785,0.286269502547605,0.35278332803945167
0.63375,0.62625,0.68,0.62125,0.71125,0.5425,0.9025,0.8475,0.81,0.73875,0.76,0.70625,0.4966032898953215,0.49988097781304364,0.5309213538010804,0.4997779751438237,0.5041474245189468,0.443136237699522,0.2844180699296009,0.28809611769191884
0.63375,0.62625,0.68,0.62125,0.71125,0.5425,0.9025,0.8475,0.81,0.73875,0.76,0.70625,0.4966154972991119,0.49973448896755884,0.5310129093295084,0.4993960923762686,0.5040319715631769,0.4379180902076584,0.27971512769779444,0.28016562929343714
0.63425,0.6267499999999999,0.68025,0.62175,0.71175,0.5425,0.9052500000000001,0.8484999999999999,0.8125,0.7425,0.762,0.71675,0.4966460158085879,0.4996368297372356,0.5310892056031984,0.49914742452762806,0.5039609236064224,0.4379180902076584,0.27971512769779444,0.28016562929343714
0.63475,0.62725,0.6805,0.62225,0.7122499999999999,0.5425,0.9079999999999999,0.8495,0.815,0.74625,0.764,0.72725,0.4967833491012299,0.4995757927182836,0.5313486129337444,0.499174067511411,0.5041918295179623,0.3511935278666212,0.274341587301793,0.2260813646678517
0.63525,0.62775,0.6807500000000001,0.62275,0.7127500000000001,0.5425,0.9107500000000001,0.8504999999999999,0.8175,0.75,0.7659999999999999,0.73775,0.4968169194616535,0.49959410382396924,0.5315561387981811,0.49968028419460503,0.5047779751438237,0.33506239206557653,0.27616600780107975,0.21941004598538338
0.63575,0.62825,0.6809999999999999,0.6232500000000001,0.71325,0.5425,0.9135,0.8515,0.82,0.75375,0.768,0.7482500000000001,0.4966887417218543,0.4996002075258644,0.5314584795678579,0.5001598578853349,0.5055861456258615,0.32590358875062514,0.2789053927395271,0.21389456524944492
0.63625,0.62875,0.68125,0.62375,0.71375,0.5425,0.91625,0.8525,0.8225,0.7575,0.77,0.75875,0.4966002380443739,0.49959715567491686,0.5313516647846919,0.5007015985469061,0.5062078152648254,0.31806665759327424,0.2812530055599391,0.20593563727164038
0.63625,0.62875,0.68125,0.62375,0.71375,0.5425,0.91625,0.8525,0.8225,0.7575,0.77,0.75875,0.4963744010742515,0.49971007415997803,0.530695516830958,0.5012966251934058,0.5053374778032649,0.31241065645417865,0.2826871671253135,0.20286868117294077
0.6367499999999999,0.62875,0.682,0.6232500000000001,0.7145,0.5425,0.919,0.85625,0.8245,0.7615000000000001,0.77275,0.76425,0.49620044557023835,0.5000640888698996,0.5302102725302896,0.5013055061880001,0.5028952042464245,0.30413587164959577,0.2847734575840031,0.19709466618147786
0.63725,0.62875,0.6827500000000001,0.62275,0.71525,0.5425,0.92175,0.86,0.8265,0.7655,0.7755,0.7697499999999999,0.49609363078707236,0.5001922666096987,0.5297158726767784,0.5009946713858808,0.49991119006273826,0.2814730382157916,0.2882932210606878,0.18440049470623085
0.63775,0.62875,0.6835,0.62225,0.716,0.5425,0.9245,0.86375,0.8284999999999999,0.7695000000000001,0.77825,0.7752500000000001,0.49616687520981473,0.5003479110080263,0.5297097689748833,0.5002664298465105,0.49637655419684246,0.27275762935867515,0.2902494732713805,0.17965257435026605
0.63825,0.62875,0.68425,0.62175,0.71675,0.5425,0.9272499999999999,0.8675,0.8305,0.7735,0.7809999999999999,0.78075,0.49624011963255715,0.5005035554063539,0.5297036652729881,0.49953818830714014,0.49284191833094665,0.2675283840444053,0.2922068271578801,0.17760387654910287
0.63875,0.62875,0.685,0.62125,0.7175,0.5425,0.93,0.87125,0.8325,0.7775,0.78375,0.78625,0.49649342326120793,0.5004242072817163,0.5303964354380932,0.4986767318401739,0.49073712259473384,0.2675283840444053,0.2922068271578801,0.17760387654910287
0.63875,0.62875,0.685,0.62125,0.7175,0.5425,0.93,0.87125,0.8325,0.7775,0.78375,0.78625,0.4966460158085879,0.5000335703604236,0.5307962279122288,0.49833925405427165,0.49013321499704643,0.2596748034532449,0.29194385228244746,0.17235174057429048
0.63875,0.62875,0.685,0.62125,0.7175,0.5425,0.93,0.87125,0.8325,0.7775,0.78375,0.78625,0.4967833491012299,0.5000061037018952,0.5312082277901548,0.4988809947332055,0.4904351687958901,0.2588157455925903,0.29089925948349465,0.1704250454695804
0.63875,0.62875,0.685,0.62125,0.7175,0.5425,0.93,0.87125,0.8325,0.7775,0.78375,0.78625,0.4968382824182867,0.4999023407696768,0.5313547166356395,0.5000177620412765,0.4912344583614654,0.2605588273640136,0.2906369731554413,0.16837647259554417
0.63875,0.62825,0.68475,0.621,0.7165,0.5425,0.9259999999999999,0.8684999999999999,0.8292499999999999,0.774,0.7805,0.78375,0.49694204535050507,0.4998748741111484,0.5314706869716483,0.5011545293493475,0.4922468917278535,0.2688558078134092,0.2897246268164335,0.1668296881847467
0.63875,0.62775,0.6845,0.62075,0.7155,0.5425,0.922,0.86575,0.826,0.7705,0.77725,0.78125,0.49696340830713825,0.500015259254738,0.5313791314432204,0.5021580817298226,0.49344582600676595,0.2688558078134092,0.2897246268164335,0.1668296881847467
0.63875,0.62725,0.68425,0.6204999999999999,0.7145,0.5425,0.9179999999999999,0.863,0.8227500000000001,0.767,0.774,0.77875,0.4969298379467147,0.5001953184606464,0.5312753685110019,0.5027087033773068,0.49447602134498,0.2727714975863829,0.29364222810853724,0.17131071795834005
0.63875,0.6267499999999999,0.684,0.62025,0.7134999999999999,0.5425,0.914,0.8602500000000001,0.8195,0.7635,0.77075,0.77625,0.4969359416486099,0.500167851802118,0.5312784203619495,0.5023534635935346,0.49489342809959364,0.27969666297714924,0.29782390919210344,0.1851460208613895
0.63875,0.62625,0.68375,0.62,0.7125,0.5425,0.91,0.8575,0.81625,0.76,0.7675,0.77375,0.4969664601580859,0.5002533036286507,0.5312112796411024,0.5016696270010919,0.4952841918270177,0.2831661824865864,0.2999141964658159,0.19116569855822807
0.63875,0.62625,0.68375,0.62,0.7125,0.5425,0.91,0.8575,0.81625,0.76,0.7675,0.77375,0.4969817194128239,0.5002166814172796,0.5311990722373119,0.500923623446489,0.4955683836540355,0.2861867559267853,0.30122190184967723,0.1982046364032638
0.63875,0.62625,0.68375,0.62,0.7125,0.5425,0.91,0.8575,0.81625,0.76,0.7675,0.77375,0.4970610675374615,0.5001800592059084,0.5312631611072115,0.5003019538162063,0.49602131438702635,0.29749043078787163,0.30240191004663125,0.21280560549900532
0.63875,0.62625,0.68375,0.62,0.7125,0.5425,0.91,0.8575,0.81625,0.76,0.7675,0.77375,0.4971617786187323,0.500137333292642,0.5313608203375347,0.49987566608436107,0.4964742451200172,0.3066381416808169,0.303971349300531,0.22049578683426696
0.63875,0.6265,0.68375,0.6204999999999999,0.7122499999999999,0.5425,0.90875,0.85625,0.8142499999999999,0.75725,0.7655,0.7667499999999999,0.49721976378673666,0.5001312295907467,0.5313852351451155,0.49947602131893604,0.4972824156367802,0.3188397140807799,0.30397424281963553,0.22652014280864427
0.63875,0.6267499999999999,0.68375,0.621,0.7120000000000001,0.5425,0.9075,0.855,0.8122499999999999,0.7545000000000001,0.7635,0.7597499999999999,0.49718924527726066,0.5000732444227424,0.5313669240394299,0.4993161634162386,0.49814387210374644,0.3419598210009272,0.30332721241715005,0.23895753387543447
0.63875,0.627,0.68375,0.6214999999999999,0.71175,0.5425,0.90625,0.85375,0.81025,0.7517499999999999,0.7615000000000001,0.75275,0.49709463789788505,0.500061037018952,0.5312692648091067,0.4992628774486727,0.49884547070274043,0.3554055916024468,0.29929032069661227,0.26570473757801233
0.63875,0.62725,0.68375,0.622,0.7115,0.5425,0.905,0.8525,0.80825,0.7490000000000001,0.7595000000000001,0.74575,0.49697256385998106,0.4999938962981048,0.5311014130069888,0.4994227353513702,0.49913854351567116,0.35801327744552774,0.3011174970055277,0.2678765096907887
0.63875,0.6275,0.68375,0.6225,0.71125,0.5425,0.90375,0.85125,0.80625,0.74625,0.7575,0.73875,0.4968749046296579,0.4999603259376812,0.5309701834162419,0.4996181172324449,0.49932504439347025,0.35801327744552774,0.3011174970055277,0.2678765096907887
0.63875,0.6275,0.68375,0.6225,0.71125,0.5425,0.90375,0.85125,0.80625,0.74625,0.7575,0.73875,0.49682607501449627,0.5000244148075808,0.5309060945463424,0.4999467140324342,0.49912966252975816,0.3501513802380628,0.289236304154707,0.26546790981639856
0.63875,0.6275,0.68375,0.6225,0.71125,0.5425,0.90375,0.85125,0.80625,0.74625,0.7575,0.73875,0.4968321787163915,0.5000823999755852,0.5309060945463424,0.5000888099459431,0.4986412078183901,0.3501513802380628,0.289236304154707,0.26546790981639856
0.63875,0.6275,0.68375,0.6225,0.7115,0.54275,0.90325,0.851,0.8059999999999999,0.7454999999999999,0.7575,0.73775,0.4969359416486099,0.5001281777397992,0.5309366130558184,0.5001598579026975,0.4983126110097195,0.3519083302371939,0.2876697600400232,0.26315723009549397
0.63875,0.6275,0.68375,0.6225,0.71175,0.5429999999999999,0.90275,0.85075,0.8057500000000001,0.7447499999999999,0.7575,0.73675,0.49700918607135225,0.5001647999511704,0.5310342722861415,0.5000710479567544,0.49829484903789356,0.3519083302371939,0.2876697600400232,0.26315723009549397
0.63875,0.6275,0.68375,0.6225,0.7120000000000001,0.54325,0.90225,0.8504999999999999,0.8055,0.7440000000000001,0.7575,0.73575,0.49701223792229987,0.5001800592059084,0.5310647907956175,0.5001332149189146,0.49837477799792357,0.35497883577762107,0.28610335363481526,0.2620052819254161
0.63875,0.6275,0.68375,0.6225,0.7122499999999999,0.5435,0.9017499999999999,0.8502500000000001,0.80525,0.7432500000000001,0.7575,0.7347499999999999,0.4969847712637715,0.5000823999755852,0.5310678426465651,0.500310834819482,0.4983481350054594,0.35804657091274683,0.28714794643376806,0.260846835922308
0.63875,0.6275,0.68375,0.6225,0.7125,0.54375,0.90125,0.85,0.805,0.7425,0.7575,0.73375,0.49697866756187625,0.5000366222113712,0.5310342722861415,0.5005861456605867,0.49843694496876506,0.3606625787725325,0.2883225791008292,0.2605901642166759
0.63875,0.6275,0.68375,0.6225,0.7125,0.54375,0.90125,0.85,0.805,0.7425,0.7575,0.73375,0.4968962675862911,0.500045777764214,0.5310037537766655,0.5008703374789232,0.49839254000447486,0.3615493784890028,0.28910557573921936,0.2589120935637077
0.63875,0.6275,0.68375,0.6225,0.7125,0.54375,0.90125,0.85,0.805,0.7425,0.7575,0.73375,0.4968901638843959,0.5000579851680044,0.5309549241615039,0.5011190053188823,0.4981261101492831,0.3550010314224338,0.2910633427541465,0.2596845147446199
0.63875,0.62725,0.684,0.6225,0.7125,0.54375,0.9002500000000001,0.8502500000000001,0.8045,0.742,0.757,0.73275,0.4969389934995575,0.5000335703604236,0.5309854426709799,0.5011722912864482,0.49791296626165715,0.3550010314224338,0.2910633427541465,0.2596845147446199
0.63875,0.627,0.68425,0.6225,0.7125,0.54375,0.89925,0.8504999999999999,0.804,0.7415,0.7565000000000001,0.73175,0.4970000305185095,0.5000579851680044,0.5310251167332988,0.5010213143696637,0.49795737122594735,0.35324962763430573,0.2911940711696342,0.2607024404439613
0.63875,0.6267499999999999,0.6845,0.6225,0.7125,0.54375,0.89825,0.85075,0.8035,0.741,0.7559999999999999,0.73075,0.49704886013367106,0.5000732444227424,0.5310281685842464,0.5009502664129093,0.49803730016861475,0.345398822848847,0.28727729613438563,0.25890778195539865
0.63875,0.6265,0.68475,0.6225,0.7125,0.54375,0.89725,0.851,0.8029999999999999,0.7404999999999999,0.7555,0.7297499999999999,0.4970671712393567,0.500030518509476,0.5310373241370892,0.5009236234378077,0.4981527530896594,0.3550148996501416,0.29249943387229443,0.25684163086114603
0.63875,0.62625,0.685,0.6225,0.7125,0.54375,0.89625,0.85125,0.8025,0.74,0.755,0.72875,0.49705496383556624,0.500030518509476,0.5310983611560411,0.5009857904086491,0.49822380104641384,0.3554582995083767,0.29275992673693874,0.25696884399224995
0.63875,0.62625,0.685,0.6225,0.7125,0.54375,0.89625,0.85125,0.8025,0.74,0.755,0.72875,0.49706411938840905,0.5000854518265327,0.5310922574541459,0.5010834813578677,0.4982593250595163,0.3554582995083767,0.29275992673693874,0.25696884399224995
0.63875,0.62625,0.685,0.6225,0.7125,0.54375,0.89625,0.85125,0.8025,0.74,0.755,0.72875,0.49705496383556624,0.5001129184850612,0.5310495315408795,0.5012433392605653,0.49823268206705207,0.35021518596639906,0.29249860599532784,0.257349643777923
0.63875,0.6267499999999999,0.685,0.62225,0.7125,0.544,0.8959999999999999,0.8515,0.8015000000000001,0.74,0.75425,0.72775,0.49698782311471906,0.5001556443983276,0.5310831019013031,0.50135879218161,0.4980284191827018,0.3441019167413605,0.29341150479235045,0.2558102357461199
0.63875,0.62725,0.685,0.622,0.7125,0.54425,0.89575,0.85175,0.8005,0.74,0.7535,0.72675,0.49698782311471906,0.5002197332682272,0.5311136204107791,0.5014831261059302,0.49767317943365486,0.3480287043367406,0.2927592381895594,0.2551649984925677
0.63875,0.62775,0.685,0.62175,0.7125,0.5445,0.8955,0.852,0.7995,0.74,0.75275,0.72575,0.4970000305185095,0.5002563554795983,0.5310861537522508,0.5014831261059302,0.4972468917278535,0.3458422227070822,0.2921060060003259,0.2541406609489976
0.63875,0.62825,0.685,0.6214999999999999,0.7125,0.5447500000000001,0.8952500000000001,0.85225,0.7985,0.74,0.752,0.7247499999999999,0.49699392681661425,0.5002319406720176,0.5310953093050935,0.5013943161426245,0.496705151031557,0.3467207004068478,0.2921057305813742,0.2533655724928041
0.63875,0.62875,0.685,0.62125,0.7125,0.545,0.895,0.8525,0.7975,0.74,0.75125,0.72375,0.4970458082827235,0.5002410962248603,0.5310831019013031,0.5013499111783343,0.49621669635491417,0.3467207004068478,0.2922363212873859,0.2536234318173571
0.63875,0.62875,0.685,0.62125,0.7125,0.545,0.895,0.8525,0.7975,0.74,0.75125,0.72375,0.49720145268105104,0.5002624591814936,0.5310922574541459,0.5012611012323912,0.4961101244197825,0.3467207004068478,0.2922363212873859,0.2536234318173571
0.63875,0.62875,0.685,0.62125,0.7125,0.545,0.895,0.8525,0.7975,0.74,0.75125,0.72375,0.49734488967558826,0.5002502517777032,0.5310922574541459,0.5010923623264182,0.496385435226162,0.3480203823200359,0.2926275441876293,0.252721015037514
0.639,0.6295000000000001,0.685,0.621,0.713,0.54625,0.895,0.8525,0.7972499999999999,0.7395,0.75075,0.7215,0.49741203039643545,0.5002380443739127,0.5311105685598315,0.5009769093966921,0.4968028419460504,0.35632290358003443,0.2964137268967546,0.2516649638504376
0.63925,0.63025,0.685,0.62075,0.7134999999999999,0.5475,0.895,0.8525,0.797,0.7390000000000001,0.7502500000000001,0.71925,0.49740287484359264,0.500213629566332,0.5311044648579364,0.5008703374702418,0.4974156305991013,0.35632290358003443,0.2964137268967546,0.2516649638504376
0.6395000000000001,0.631,0.685,0.6204999999999999,0.7140000000000001,0.54875,0.895,0.8525,0.79675,0.7384999999999999,0.7497499999999999,0.7170000000000001,0.49740287484359264,0.50022888882107,0.5311502426221504,0.5007282415480516,0.4979751332324986,0.3545798218086111,0.297457768857804,0.25114349125255714
0.63975,0.6317499999999999,0.685,0.62025,0.7145,0.55,0.895,0.8525,0.7965000000000001,0.738,0.74925,0.71475,0.497369304483169,0.5001800592059084,0.5311288796655171,0.5005506216561656,0.4982593250595163,0.3502346058055102,0.30163421050084166,0.24919145216538366
0.64,0.6325,0.685,0.62,0.715,0.55125,0.895,0.8525,0.79625,0.7375,0.74875,0.7125,0.497308267464217,0.5001586962492752,0.5311075167088839,0.5004174067459323,0.4982682060454293,0.3502346058055102,0.30163421050084166,0.24919145216538366
0.64,0.6325,0.685,0.62,0.715,0.55125,0.895,0.8525,0.79625,0.7375,0.74875,0.7125,0.49727774895474103,0.500167851802118,0.5310861537522508,0.5003641207783665,0.4982593250595163,0.3510881120547614,0.3032010316545886,0.24943750912130272
0.64,0.6325,0.685,0.62,0.715,0.55125,0.895,0.8525,0.79625,0.7375,0.74875,0.7125,0.49733573412274545,0.5001861629078036,0.5310769981994079,0.5003108348108006,0.498055062175166,0.3510881120547614,0.3032010316545886,0.24943750912130272
0.6402500000000001,0.63275,0.685,0.62025,0.71575,0.552,0.8947499999999999,0.852,0.7965000000000001,0.73675,0.748,0.7105,0.49728690450758384,0.500183111056856,0.5310373241370892,0.500230905859452,0.49775310834159703,0.354574275597608,0.2998092407837629,0.25456518360666397
0.6405,0.633,0.685,0.6204999999999999,0.7165,0.55275,0.8945000000000001,0.8515,0.79675,0.736,0.74725,0.7084999999999999,0.4972685934018983,0.5002075258644367,0.5310037537766655,0.5001953818810747,0.49748667848640526,0.354574275597608,0.2998092407837629,0.25456518360666397
0.64075,0.63325,0.685,0.62075,0.7172499999999999,0.5535,0.89425,0.851,0.797,0.7352500000000001,0.7465,0.7065,0.49721976378673666,0.5002105777153844,0.5310464796899319,0.5001865008864804,0.49708703373834284,0.3550148996501416,0.2986337802397352,0.2548204364970688
0.6409999999999999,0.6335000000000001,0.685,0.621,0.718,0.55425,0.894,0.8504999999999999,0.7972499999999999,0.7345,0.74575,0.7045,0.49721366008484147,0.500198370311594,0.5310617389446699,0.5001332149189146,0.49662522201943904,0.3558767333164978,0.2977197781467942,0.2537943540297974
0.64125,0.63375,0.685,0.62125,0.71875,0.555,0.89375,0.85,0.7975,0.73375,0.745,0.7025,0.49727164525284584,0.50022888882107,0.5310647907956175,0.5001865008864804,0.49638543519143674,0.34891827445851237,0.29902183258181086,0.24609328618776094
0.64125,0.63375,0.685,0.62125,0.71875,0.555,0.89375,0.85,0.7975,0.73375,0.745,0.7025,0.49737235633411664,0.5002319406720176,0.5310922574541459,0.5001420959135089,0.49638543519143674,0.344999808879837,0.2994131931915301,0.2473714772756713
0.64125,0.63375,0.685,0.62125,0.71875,0.555,0.89375,0.85,0.7975,0.73375,0.745,0.7025,0.4975005340739158,0.5002777184362316,0.5310922574541459,0.5000355239783772,0.49664298406071555,0.344999808879837,0.2994131931915301,0.2473714772756713
0.64125,0.63375,0.685,0.62125,0.71875,0.555,0.89375,0.85,0.7975,0.73375,0.745,0.7025,0.4975951414532914,0.5003143406476027,0.5310495315408795,0.4998579040864911,0.4971847247222868,0.3467567642793683,0.30097959959673803,0.2453051306785772
0.6417499999999999,0.634,0.68525,0.6214999999999999,0.71925,0.5565,0.8925,0.8502500000000001,0.7965000000000001,0.7334999999999999,0.7447499999999999,0.69975,0.4976836451307718,0.5002929776909696,0.5310251167332988,0.4996447602249091,0.49793072825952706,0.34326227871981696,0.3008491466002021,0.24568475095748046
0.64225,0.63425,0.6855,0.62175,0.7197499999999999,0.5579999999999999,0.89125,0.8504999999999999,0.7955,0.7332500000000001,0.7445,0.6970000000000001,0.4976561784722434,0.5002685628833887,0.5310373241370892,0.49942273536005155,0.4984991118788373,0.3454432087380722,0.30228537542782585,0.24400722868592656
0.64275,0.6345000000000001,0.6857500000000001,0.622,0.7202500000000001,0.5595,0.89,0.85075,0.7945,0.733,0.74425,0.6942499999999999,0.4975920896023438,0.5002410962248603,0.5310464796899319,0.49928952044113695,0.49893428064000217,0.34719738833190184,0.3043741478973039,0.24630087775681397
0.64325,0.63475,0.6859999999999999,0.62225,0.72075,0.561,0.88875,0.851,0.7935,0.73275,0.7440000000000001,0.6915,0.49748222296823025,0.5001922666096987,0.5310678426465651,0.4991829485060053,0.499076376553511,0.34807031442026415,0.3052877352417058,0.24590794057066662
0.64375,0.635,0.68625,0.6225,0.72125,0.5625,0.8875,0.85125,0.7925,0.7325,0.74375,0.68875,0.49744865260780663,0.5001464888454847,0.5310708944975128,0.499165186525498,0.49913854352435244,0.34807031442026415,0.3052877352417058,0.24590794057066662
0.64375,0.635,0.68625,0.6225,0.72125,0.5625,0.8875,0.85125,0.7925,0.7325,0.74375,0.68875,0.49741203039643545,0.5001739555040132,0.5310769981994079,0.499174067511411,0.49908525754810534,0.34720571034860653,0.3062021504630744,0.2459043647344622
0.64375,0.635,0.68625,0.6225,0.72125,0.5625,0.8875,0.85125,0.7925,0.7325,0.74375,0.68875,0.49738761558885464,0.5002197332682272,0.5310678426465651,0.49920071049519393,0.4990142095913509,0.34679559855719017,0.30346028351383875,0.24577245304544174
0.64375,0.6355,0.68625,0.6225,0.72125,0.56275,0.88775,0.85225,0.792,0.7325,0.743,0.688,0.49738151188695945,0.5002471999267556,0.5310464796899319,0.49925399646275975,0.4989964476021623,0.34592267246882785,0.3034595949664594,0.2432053433610078
0.64375,0.636,0.68625,0.6225,0.72125,0.563,0.888,0.8532500000000001,0.7915000000000001,0.7325,0.74225,0.6872499999999999,0.49736320078127383,0.5002716147343363,0.5310403759880368,0.49934280640870277,0.4990142095913509,0.34679837436289185,0.30332872722138443,0.2425702114140796
0.64375,0.6365,0.68625,0.6225,0.72125,0.56325,0.88825,0.85425,0.7909999999999999,0.7325,0.7415,0.6865000000000001,0.49737235633411664,0.5002990813928647,0.5310281685842464,0.49934280640870277,0.4989964476021623,0.34811747611519095,0.3025449043261391,0.24154452400856666
0.64375,0.637,0.68625,0.6225,0.72125,0.5635,0.8885,0.8552500000000001,0.7905,0.7325,0.74075,0.6857500000000001,0.49737540818506426,0.5002838221381267,0.5310708944975128,0.4994049733708629,0.49907637656219234,0.34375838648398205,0.30254449119771154,0.23846539968321856
0.64375,0.6375,0.68625,0.6225,0.72125,0.56375,0.88875,0.85625,0.79,0.7325,0.74,0.685,0.49737235633411664,0.5002655110324412,0.5310556352427748,0.49942273536005155,0.49924511545948413,0.34637994055477084,0.3028049840623558,0.23846948415129693
0.64375,0.6375,0.68625,0.6225,0.72125,0.56375,0.88875,0.85625,0.79,0.7325,0.74,0.685,0.49739066743980226,0.5002655110324412,0.5310647907956175,0.4993783303957613,0.49938721137299297,0.34637994055477084,0.3028049840623558,0.23846948415129693
0.64375,0.6375,0.68625,0.6225,0.72125,0.56375,0.88875,0.85625,0.79,0.7325,0.74,0.685,0.4973784600360118,0.5002471999267556,0.5310739463484604,0.499369449401167,0.49949378330812466,0.3472722918826444,0.30175970271602376,0.2335967648403952
0.64375,0.6375,0.68625,0.6225,0.72125,0.56375,0.88875,0.85625,0.79,0.7325,0.74,0.685,0.49740287484359264,0.5002655110324412,0.5310800500503555,0.4994138543654572,0.4995737122594734,0.34858584202354037,0.30123788910976856,0.23372675151595987
0.64375,0.63725,0.6865000000000001,0.62275,0.7215,0.56375,0.88875,0.8565,0.78875,0.73225,0.74075,0.68475,0.49741203039643545,0.5002777184362316,0.5310678426465651,0.4994404973492401,0.49955595027028477,0.34858584202354037,0.30123788910976856,0.23372675151595987
0.64375,0.637,0.68675,0.623,0.72175,0.56375,0.88875,0.85675,0.7875,0.732,0.7415,0.6845,0.49740287484359264,0.500244148075808,0.5310708944975128,0.4995026643114003,0.49951154529731323,0.34076277909389735,0.30006008588453975,0.22449660159925416
0.64375,0.6367499999999999,0.687,0.6232500000000001,0.722,0.56375,0.88875,0.857,0.78625,0.73175,0.74225,0.68425,0.49739677114169745,0.50022888882107,0.5310647907956175,0.499591474248662,0.499396092358906,0.34076277909389735,0.30006008588453975,0.22449660159925416
0.64375,0.6365,0.6872499999999999,0.6235,0.72225,0.56375,0.88875,0.85725,0.785,0.7315,0.743,0.684,0.49736320078127383,0.5001861629078036,0.5310647907956175,0.4996358792216335,0.4993605683805288,0.3372738451457493,0.3000595350466363,0.22436762650893155
0.64375,0.63625,0.6875,0.62375,0.7225,0.56375,0.88875,0.8575,0.78375,0.73125,0.74375,0.68375,0.49733573412274545,0.5001647999511704,0.5310495315408795,0.4996536412108221,0.49935168738593444,0.3385929468980485,0.2987543100534519,0.22450413129790422
0.64375,0.63625,0.6875,0.62375,0.7225,0.56375,0.88875,0.8575,0.78375,0.73125,0.74375,0.68375,0.49734794152653583,0.500137333292642,0.5310312204351939,0.49969804618379365,0.49928063942918,0.34120895475783414,0.2984927138928893,0.22335021025267912
0.64375,0.63625,0.6875,0.62375,0.7225,0.56375,0.88875,0.8575,0.78375,0.73125,0.74375,0.68375,0.49734488967558826,0.5001098666341136,0.5310617389446699,0.4996358792216335,0.4992095914724256,0.34077942852770693,0.29784003416167065,0.22219598175692737
0.644,0.6365,0.6872499999999999,0.624,0.72275,0.56375,0.88875,0.85775,0.7845,0.731,0.7432500000000001,0.6835,0.49736625263222145,0.5001007110812707,0.5310739463484604,0.4996625222054164,0.4991918295005996,0.34077942852770693,0.29784003416167065,0.22219598175692737
0.64425,0.6367499999999999,0.687,0.62425,0.723,0.56375,0.88875,0.858,0.78525,0.73075,0.74275,0.68325,0.49742118594927826,0.500122074037904,0.5310495315408795,0.49967140320001074,0.4991030195546566,0.33729326498486034,0.29731808122582815,0.22206928618106356
0.6445000000000001,0.637,0.68675,0.6245,0.7232500000000001,0.56375,0.88875,0.8582500000000001,0.7859999999999999,0.7304999999999999,0.74225,0.6829999999999999,0.49738151188695945,0.500122074037904,0.5310769981994079,0.4997424511567652,0.4989698046444233,0.33729326498486034,0.29731808122582815,0.22206928618106356
0.6447499999999999,0.63725,0.6865000000000001,0.62475,0.7234999999999999,0.56375,0.88875,0.8584999999999999,0.78675,0.7302500000000001,0.74175,0.6827500000000001,0.49732657856990264,0.5001159703360087,0.5310892056031984,0.49976021314595376,0.4989253996801331,0.3403471264918781,0.2969268583255848,0.2224595747498771
0.645,0.6375,0.68625,0.625,0.72375,0.56375,0.88875,0.85875,0.7875,0.73,0.74125,0.6825,0.49732657856990264,0.5001342814416944,0.5310800500503555,0.4998312611027082,0.49889875670503153,0.3403499022975798,0.29770916641659567,0.22168858292998855
0.645,0.6375,0.68625,0.625,0.72375,0.56375,0.88875,0.85875,0.7875,0.73,0.74125,0.6825,0.497338785973693,0.5001342814416944,0.5310922574541459,0.4998490230918968,0.4988632327266543,0.33425327710595054,0.2978386554468006,0.21822005101543626
0.645,0.6375,0.68625,0.625,0.72375,0.56375,0.88875,0.85875,0.7875,0.73,0.74125,0.6825,0.497354045228431,0.5001312295907467,0.5310831019013031,0.49991119005405693,0.4988277087482771,0.33425327710595054,0.2978386554468006,0.21822005101543626
0.645,0.6375,0.68625,0.625,0.72375,0.56375,0.88875,0.85875,0.7875,0.73,0.74125,0.6825,0.49740592669454026,0.5001190221869564,0.5311014130069888,0.4999644760216228,0.49881882774500147,0.3360102271050817,0.2967942003573237,0.21796524185969654
0.645,0.6375,0.68625,0.625,0.72375,0.56375,0.88875,0.85875,0.7875,0.73,0.74125,0.6825,0.49746086001159706,0.5001586962492752,0.5310983611560411,0.5000444049729715,0.498765541760073,0.3360130029107833,0.29705552109893457,0.21706625489733808
0.645,0.63775,0.6865000000000001,0.625,0.7240000000000001,0.564,0.88875,0.85875,0.7875,0.73,0.74075,0.6815000000000001,0.49747611926633506,0.5001861629078036,0.5311105685598315,0.5000888099459431,0.49870337478923155,0.3364480807523138,0.2966636096513119,0.2175721700118409
0.645,0.638,0.68675,0.625,0.72425,0.5642499999999999,0.88875,0.85875,0.7875,0.73,0.7402500000000001,0.6805,0.497445600756859,0.500183111056856,0.5311166722617268,0.5001243339243202,0.4986412078183901,0.3329535897923623,0.29757761012414147,0.21679812802313916
0.645,0.63825,0.687,0.625,0.7245,0.5645,0.88875,0.85875,0.7875,0.73,0.7397499999999999,0.6795,0.4973937192907498,0.5001892147587512,0.5311258278145695,0.5001420959135089,0.49865008880430306,0.33862901077056895,0.2983615723489741,0.21846902753453584
0.645,0.6385000000000001,0.6872499999999999,0.625,0.7247499999999999,0.56475,0.88875,0.85875,0.7875,0.73,0.73925,0.6785,0.49735099337748345,0.5002044740134892,0.5310983611560411,0.5001420959135089,0.49870337477186893,0.33862901077056895,0.2983615723489741,0.21846902753453584
0.645,0.63875,0.6875,0.625,0.725,0.565,0.88875,0.85875,0.7875,0.73,0.73875,0.6775,0.497293008209479,0.5001403851435896,0.5310678426465651,0.5001865008864804,0.49871225577514455,0.33862901077056895,0.2983615723489741,0.21846902753453584
0.645,0.63875,0.6875,0.625,0.725,0.565,0.88875,0.85875,0.7875,0.73,0.73875,0.6775,0.49731742301705983,0.5001617481002227,0.5310373241370892,0.5002930728216121,0.4987300177643331,0.33778382653802236,0.29666416048921534,0.21718922131734172
0.645,0.63875,0.6875,0.625,0.725,0.565,0.88875,0.85875,0.7875,0.73,0.73875,0.6775,0.49734183782464064,0.5001495406964324,0.5310098574785608,0.5003818827675551,0.4988188277102762,0.3421429161692313,0.2983615723489741,0.2179543488632008
0.645,0.63875,0.6875,0.625,0.725,0.565,0.88875,0.85875,0.7875,0.73,0.73875,0.6775,0.49741813409833063,0.500167851802118,0.5310464796899319,0.5003996447567437,0.49888099468111763,0.3360435151719005,0.29953496401064106,0.21395987374429745
0.645,0.63875,0.6875,0.625,0.725,0.565,0.88875,0.85875,0.7875,0.73,0.73875,0.6775,0.4974700155644398,0.500167851802118,0.5310739463484604,0.5004174067459323,0.49890763767358187,0.3360435151719005,0.29953496401064106,0.21395987374429745
0.645,0.639,0.687,0.62475,0.7252500000000001,0.56575,0.88875,0.8584999999999999,0.7872499999999999,0.73,0.7395,0.677,0.4975554673909726,0.5002105777153844,0.5310708944975128,0.5003730017729607,0.4991296625384395,0.3373515245021935,0.30044965465096135,0.21280688154037317
0.645,0.63925,0.6865000000000001,0.6245,0.7254999999999999,0.5665,0.88875,0.8582500000000001,0.787,0.73,0.7402500000000001,0.6765000000000001,0.4975646229438154,0.5001892147587512,0.5310586870937224,0.5003552397837722,0.4994404973492401,0.3399758543786839,0.30031892623547374,0.21383107712129898
0.645,0.6395000000000001,0.6859999999999999,0.62425,0.72575,0.56725,0.88875,0.858,0.78675,0.73,0.741,0.6759999999999999,0.49752189703054905,0.500183111056856,0.5311014130069888,0.5002841918270178,0.49965364121950345,0.33823277260726065,0.30110261142124317,0.21421923706166415
0.645,0.63975,0.6855,0.624,0.726,0.568,0.88875,0.85775,0.7865000000000001,0.73,0.74175,0.6755,0.4975157933286538,0.5001739555040132,0.5311044648579364,0.5003285967999893,0.4998134991222009,0.3417300339725135,0.3017550173536216,0.21216380211901328
0.645,0.64,0.685,0.62375,0.72625,0.56875,0.88875,0.8575,0.78625,0.73,0.7425,0.675,0.49748832667012544,0.5001739555040132,0.5311105685598315,0.5002841918270178,0.49995559502702847,0.3412977319366847,0.3017547419346699,0.21293314554979853
0.645,0.6395000000000001,0.685,0.6235,0.72625,0.5685,0.88875,0.8575,0.7872499999999999,0.73,0.7425,0.675,0.49738151188695945,0.5001922666096987,0.5311136204107791,0.5002575488432348,0.49989342806486836,0.3412977319366847,0.3017547419346699,0.21293314554979853
0.645,0.639,0.685,0.6232500000000001,0.72625,0.56825,0.88875,0.8575,0.78825,0.73,0.7425,0.675,0.49734794152653583,0.500167851802118,0.5311349833674124,0.5001953818810747,0.49966252221409774,0.34174390220022133,0.3012321004514481,0.21100730303216897
0.645,0.6385000000000001,0.685,0.623,0.72625,0.568,0.88875,0.8575,0.78925,0.73,0.7425,0.675,0.49738761558885464,0.5001556443983276,0.5311075167088839,0.5001776198918861,0.49944937834383446,0.3373931345857171,0.30201551021826584,0.2107569839520625
0.645,0.638,0.685,0.62275,0.72625,0.56775,0.88875,0.8575,0.79025,0.73,0.7425,0.675,0.49736320078127383,0.5001464888454847,0.5311105685598315,0.5001154529297259,0.4992628774486727,0.3452605834045853,0.2928781138694544,0.20885974893528345
0.645,0.6375,0.685,0.6225,0.72625,0.5675,0.88875,0.8575,0.79125,0.73,0.7425,0.675,0.497369304483169,0.5001495406964324,0.5311105685598315,0.5001509769081032,0.4990586145730037,0.3553256062751181,0.28961594973830945,0.2114344743071691
0.645,0.6375,0.685,0.6225,0.72625,0.5675,0.88875,0.8575,0.79125,0.73,0.7425,0.675,0.49741813409833063,0.5001464888454847,0.5311471907712028,0.5001687388972917,0.4989165186594949,0.3553256062751181,0.28961594973830945,0.2114344743071691
0.645,0.6375,0.685,0.6225,0.72625,0.5675,0.88875,0.8575,0.79125,0.73,0.7425,0.675,0.4974242378002258,0.5001770073549607,0.5311716055787835,0.5001687388972917,0.4987655417253477,0.35444435817005104,0.28974681586327294,0.21142851025368115
0.645,0.63775,0.68525,0.62225,0.7265,0.568,0.88875,0.85775,0.7907500000000001,0.73,0.7425,0.6745,0.49739677114169745,0.500244148075808,0.5311655018768884,0.5001687388972917,0.49846358790914136,0.35444435817005104,0.28974681586327294,0.21142851025368115
0.645,0.638,0.6855,0.622,0.72675,0.5685,0.88875,0.858,0.79025,0.73,0.7425,0.674,0.497399822992645,0.5002685628833887,0.5311990722373119,0.5001243339243202,0.49799289516959927,0.35270127639862775,0.29183627850024174,0.21218536097177393
0.645,0.63825,0.6857500000000001,0.62175,0.727,0.569,0.88875,0.8582500000000001,0.78975,0.73,0.7425,0.6735,0.497430341502121,0.5002502517777032,0.5312051759392071,0.5000088809945943,0.4975399644366085,0.35270127639862775,0.29183627850024174,0.21218536097177393
0.645,0.6385000000000001,0.6859999999999999,0.6214999999999999,0.72725,0.5695,0.88875,0.8584999999999999,0.78925,0.73,0.7425,0.6729999999999999,0.49751274147770624,0.5002533036286507,0.5311838129825739,0.49993783303783984,0.497175843632198,0.3544693242201652,0.29470708202166745,0.2094771241946711
0.645,0.63875,0.68625,0.62125,0.7275,0.57,0.88875,0.85875,0.78875,0.73,0.7425,0.6725,0.4975615710928678,0.5002349925229652,0.5311471907712028,0.49978685612973667,0.4969360568041957,0.3544693242201652,0.29470708202166745,0.2094771241946711
0.6455,0.639,0.68675,0.62175,0.728,0.5710000000000001,0.8905,0.8590000000000001,0.79025,0.7297499999999999,0.74275,0.6715000000000001,0.4976470229194006,0.5001922666096987,0.5311166722617268,0.4996625222054164,0.49705150972524037,0.35403979799003804,0.2948376727276792,0.20921629987889145
0.6459999999999999,0.63925,0.6872499999999999,0.62225,0.7284999999999999,0.5720000000000001,0.89225,0.85925,0.79175,0.7295,0.743,0.6705,0.4977294228949858,0.5002166814172796,0.5310495315408795,0.4996092362378506,0.4974156305296508,0.3514348825522585,0.29797062486768244,0.21035304019930404
0.6465000000000001,0.6395000000000001,0.6877500000000001,0.62275,0.7290000000000001,0.573,0.894,0.8595,0.79325,0.72925,0.7432500000000001,0.6695,0.4977904599139378,0.5002349925229652,0.5309793389690848,0.499591474248662,0.49790408524101887,0.3509887122887219,0.2988842122120844,0.20906659094157495
0.647,0.63975,0.68825,0.6232500000000001,0.7295,0.574,0.89575,0.8597499999999999,0.79475,0.7290000000000001,0.7434999999999999,0.6685,0.4977721488082522,0.5001953184606464,0.5309945982238228,0.4995470692756905,0.49836589699464795,0.3509887122887219,0.2988842122120844,0.20906659094157495
0.6475,0.64,0.68875,0.62375,0.73,0.575,0.8975,0.86,0.79625,0.72875,0.74375,0.6675,0.4977782525101474,0.500213629566332,0.5310129093295084,0.4995737122594734,0.4987921847351746,0.3483837968509424,0.30005843175071795,0.20957383969371846
0.6475,0.64,0.68875,0.62375,0.73,0.575,0.8975,0.86,0.79625,0.72875,0.74375,0.6675,0.4977446821497238,0.5002380443739127,0.5310251167332988,0.4996181172324449,0.49904973358709076,0.3375068724142816,0.3077584975960988,0.20440768035232854
0.6475,0.64,0.68875,0.62375,0.73,0.575,0.8975,0.86,0.79625,0.72875,0.74375,0.6675,0.4977416302987762,0.5001739555040132,0.5310312204351939,0.49964476021622783,0.49924511547684675,0.33707734618415447,0.3089329925536841,0.20248208444409235
0.6475,0.64,0.68875,0.62375,0.73,0.575,0.8975,0.86,0.79625,0.72875,0.74375,0.6675,0.49773552659688103,0.50015259254738,0.5310708944975128,0.49969804618379365,0.4993428064173841,0.33707734618415447,0.3089329925536841,0.20248208444409235
0.64775,0.6405,0.6884999999999999,0.62375,0.7304999999999999,0.57525,0.89825,0.8595,0.7955,0.7290000000000001,0.7432500000000001,0.667,0.4977385784478286,0.500137333292642,0.5310495315408795,0.4997690941405481,0.4994404973492401,0.33315055858877435,0.30919348541832836,0.20030045201165514
0.648,0.6409999999999999,0.68825,0.62375,0.731,0.5755,0.899,0.8590000000000001,0.79475,0.72925,0.74275,0.6665000000000001,0.4977263710440382,0.5000854518265327,0.5310434278389844,0.4998579040864911,0.4996092362378506,0.33097794518682366,0.3098456159317551,0.2004289695766558
0.64825,0.6415000000000001,0.688,0.62375,0.7315,0.57575,0.8997499999999999,0.8584999999999999,0.794,0.7295,0.74225,0.6659999999999999,0.4976958525345622,0.5000549333170567,0.5310495315408795,0.499884547070274,0.4998046181189253,0.3331616564111807,0.3099759312188151,0.19901354441738897
0.6485,0.642,0.6877500000000001,0.62375,0.732,0.5760000000000001,0.9005,0.858,0.79325,0.7297499999999999,0.74175,0.6655,0.4976409192175054,0.5001312295907467,0.5310556352427748,0.49992007104865127,0.5,0.33186474490329404,0.3091922460330456,0.19850162874471824
0.64875,0.6425,0.6875,0.62375,0.7325,0.57625,0.90125,0.8575,0.7925,0.73,0.74125,0.665,0.4975768303476058,0.500198370311594,0.5310617389446699,0.49993783303783984,0.5001953818810747,0.3296921369017435,0.30788729645881296,0.1974809043532477
0.64875,0.6425,0.6875,0.62375,0.7325,0.57625,0.90125,0.8575,0.7925,0.73,0.74125,0.665,0.4975768303476058,0.5002410962248603,0.5310953093050935,0.49987566607567974,0.5003552397837722,0.3344835285687813,0.3084089739757037,0.20004516991750632
0.64875,0.6425,0.6875,0.62375,0.7325,0.57625,0.90125,0.8575,0.7925,0.73,0.74125,0.665,0.49759819330423904,0.5002563554795983,0.5311136204107791,0.4998046181189253,0.5004706927134981,0.3344835285687813,0.3084089739757037,0.20004516991750632
0.64875,0.6425,0.6875,0.62375,0.7325,0.57625,0.90125,0.8575,0.7925,0.73,0.74125,0.665,0.4976622821741386,0.5002258369701224,0.5310708944975128,0.4998223801081139,0.5005683836627168,0.3340595485496572,0.31036811970550093,0.2003097412358786
0.6485,0.64225,0.6875,0.62375,0.7325,0.57625,0.9002500000000001,0.8575,0.7922499999999999,0.73,0.74075,0.66475,0.49768974883266703,0.5001586962492752,0.5310525833918271,0.4998046181189253,0.5006749555891672,0.3379752437230311,0.3133722697425671,0.20235965261484617
0.64825,0.642,0.6875,0.62375,0.7325,0.57625,0.89925,0.8575,0.792,0.73,0.7402500000000001,0.6645,0.4976683858760338,0.5001098666341136,0.5310403759880368,0.499795737124331,0.5008081705080817,0.3379752437230311,0.3133722697425671,0.20235965261484617
0.648,0.6417499999999999,0.6875,0.62375,0.7325,0.57625,0.89825,0.8575,0.79175,0.73,0.7397499999999999,0.66425,0.4976012451551866,0.5001586962492752,0.5310617389446699,0.49973357016217085,0.5008969804540248,0.3384103161641614,0.31493771218144406,0.20146799416979053
0.64775,0.6415000000000001,0.6875,0.62375,0.7325,0.57625,0.89725,0.8575,0.7915000000000001,0.73,0.73925,0.664,0.49753410443433943,0.5001617481002227,0.5310739463484604,0.49948490230484904,0.5010213143696637,0.33666723439273816,0.31780948128931225,0.19929447145480697
0.6475,0.64125,0.6875,0.62375,0.7325,0.57625,0.89625,0.8575,0.79125,0.73,0.73875,0.66375,0.497430341502121,0.5001770073549607,0.5311380352183599,0.4990230905685826,0.5011101242982441,0.33666723439273816,0.31898356311847,0.19904364698768706
0.6475,0.64125,0.6875,0.62375,0.7325,0.57625,0.89625,0.8575,0.79125,0.73,0.73875,0.66375,0.497384563737907,0.5001739555040132,0.5311227759636219,0.4985701598355917,0.5011545292798969,0.3410318756353503,0.3184614724731516,0.19763315969479417
0.64725,0.64125,0.6875,0.62375,0.732,0.57525,0.89625,0.8575,0.792,0.7295,0.7390000000000001,0.6665000000000001,0.497384563737907,0.5001739555040132,0.5311258278145695,0.4979751331804107,0.501145648293984,0.34758022270191935,0.31820139273693493,0.19802586730706542
0.647,0.64125,0.6875,0.62375,0.7315,0.5742499999999999,0.89625,0.8575,0.7927500000000001,0.7290000000000001,0.73925,0.66925,0.49737235633411664,0.500091555528428,0.5309976500747704,0.49748667845168,0.5011545292972596,0.3532667361021322,0.31781003212721565,0.19893430249180885
0.6467499999999999,0.64125,0.6875,0.62375,0.731,0.57325,0.89625,0.8575,0.7935,0.7284999999999999,0.7395,0.672,0.497354045228431,0.5000366222113712,0.5309213538010804,0.49751332144414423,0.5009591474248662,0.3532667361021322,0.31781003212721565,0.19893430249180885
0.6465000000000001,0.64125,0.6875,0.62375,0.7304999999999999,0.57225,0.89625,0.8575,0.79425,0.728,0.7397499999999999,0.67475,0.49736320078127383,0.4999816888943144,0.5308633686330759,0.49770870334258155,0.5007637655524728,0.3550125936792571,0.3178098944177398,0.1973976826063384
0.64625,0.64125,0.6875,0.62375,0.73,0.57125,0.89625,0.8575,0.795,0.7275,0.74,0.6775,0.49733268227179783,0.4999359111301004,0.5309549241615039,0.4981438720863838,0.5005861456605867,0.3554448957150859,0.31793979657637234,0.19599275781545406
0.64625,0.64125,0.6875,0.62375,0.73,0.57125,0.89625,0.8575,0.795,0.7275,0.74,0.6775,0.49732963042085027,0.49986571855830564,0.5310525833918271,0.49882770868750786,0.5005062167005566,0.3545664234157205,0.31767861354423726,0.19522042424577374
0.64625,0.64125,0.6875,0.62375,0.73,0.57125,0.89625,0.8575,0.795,0.7275,0.74,0.6775,0.49734488967558826,0.4998840296639912,0.5312051759392071,0.49950266430271895,0.5004262877405267,0.3501990063674067,0.318199876312589,0.19523371276048898
0.64625,0.64125,0.6875,0.62375,0.73,0.57125,0.89625,0.8575,0.795,0.7275,0.74,0.6775,0.49741203039643545,0.49992675557725763,0.5312570574053164,0.49993783302915856,0.5005683836627168,0.30436335270712506,0.3238030383489703,0.173585023604932
0.6459999999999999,0.6402500000000001,0.687,0.6232500000000001,0.73,0.5695,0.895,0.85675,0.79375,0.72725,0.7397499999999999,0.67825,0.4974791711172826,0.5000061037018952,0.5312204351939451,0.5002575488345535,0.5007548845491971,0.3026036269022923,0.3215828472965139,0.1723096709586912
0.64575,0.63925,0.6865000000000001,0.62275,0.73,0.56775,0.89375,0.856,0.7925,0.727,0.7395,0.679,0.49747611926633506,0.5001037629322184,0.5311532944730979,0.5002486678399592,0.5008792184735175,0.29474727590583044,0.3191024404184764,0.17051300795759194
0.6455,0.63825,0.6859999999999999,0.62225,0.73,0.5660000000000001,0.8925,0.8552500000000001,0.79125,0.72675,0.73925,0.67975,0.49745780816064944,0.5001861629078036,0.5310708944975128,0.49992007103996994,0.5009946714119248,0.28775830478672787,0.31857952351630286,0.17295152787888043
0.6452500000000001,0.63725,0.6855,0.62175,0.73,0.5642499999999999,0.89125,0.8545,0.79,0.7265,0.7390000000000001,0.6805,0.49739677114169745,0.5001464888454847,0.5310769981994079,0.49953818827241486,0.5010124334011133,0.2855607253346631,0.3170149073342811,0.17692004817034263
0.645,0.63625,0.685,0.62125,0.73,0.5625,0.89,0.85375,0.78875,0.72625,0.73875,0.68125,0.4972685934018983,0.5000854518265327,0.5310831019013031,0.4992184724670199,0.500923623446489,0.2872760652502706,0.31597141783124666,0.18268803339989367
0.645,0.63625,0.685,0.62125,0.73,0.5625,0.89,0.85375,0.78875,0.72625,0.73875,0.68125,0.4972685934018983,0.5000091555528428,0.5310525833918271,0.49931616340755725,0.5008081705167631,0.29379667046102387,0.31492999397035004,0.18948121849467658
0.645,0.63625,0.685,0.62125,0.73,0.5625,0.89,0.85375,0.78875,0.72625,0.73875,0.68125,0.49732047486800746,0.4999328592791528,0.5310831019013031,0.4996003552258937,0.5009325044237206,0.29771236563439785,0.31623701080683214,0.19166671636711244
0.645,0.63625,0.685,0.62125,0.73,0.5625,0.89,0.85375,0.78875,0.72625,0.73875,0.68125,0.497354045228431,0.4999359111301004,0.5310831019013031,0.49995559500966585,0.5012166962507384,0.3016363774240763,0.3185868269788578,0.19448767959588667
0.6445000000000001,0.63575,0.685,0.62075,0.7295,0.56125,0.8895000000000001,0.85375,0.78925,0.72675,0.7397499999999999,0.68175,0.4974242378002258,0.5000122074037904,0.5310129093295084,0.5003641207610039,0.5015985790269748,0.3016363774240763,0.3185868269788578,0.19448767959588667
0.644,0.63525,0.685,0.62025,0.7290000000000001,0.56,0.889,0.85375,0.78975,0.72725,0.74075,0.6822499999999999,0.4974791711172826,0.5001190221869564,0.5310495315408795,0.5003641207610039,0.5020959147502998,0.3186404393134834,0.3230277599216741,0.1986115994986613
0.6435,0.63475,0.685,0.61975,0.7284999999999999,0.55875,0.8885,0.85375,0.79025,0.72775,0.74175,0.6827500000000001,0.49740592669454026,0.5002044740134892,0.5312112796411024,0.5000621669361162,0.5025754884844362,0.3186404393134834,0.3230277599216741,0.1986115994986613
0.643,0.63425,0.685,0.61925,0.728,0.5575,0.888,0.85375,0.7907500000000001,0.7282500000000001,0.74275,0.68325,0.49736320078127383,0.5002014221625416,0.5311593981749931,0.499609236220488,0.5028596803114539,0.31511266568711327,0.32328811507684246,0.19925616587731762
0.6425,0.63375,0.685,0.61875,0.7275,0.55625,0.8875,0.85375,0.79125,0.72875,0.74375,0.68375,0.497308267464217,0.5000976592303232,0.5311716055787835,0.49939609235022464,0.5029396092193961,0.3103018541809644,0.3244620591965243,0.20002841670305674
0.6425,0.63375,0.685,0.61875,0.7275,0.55625,0.8875,0.85375,0.79125,0.72875,0.74375,0.68375,0.49727774895474103,0.5000274666585284,0.5311929685354168,0.4992095914637443,0.5031083481253692,0.3107341562167933,0.32550623724693806,0.19822977028101377
0.6425,0.63375,0.685,0.61875,0.7275,0.55625,0.8875,0.85375,0.79125,0.72875,0.74375,0.68375,0.49727164525284584,0.5000091555528428,0.5310617389446699,0.4992539964453971,0.50328596798253,0.30986122472803074,0.32628895846637657,0.19925912194517809
0.6425,0.63375,0.685,0.61875,0.7275,0.55625,0.8875,0.85375,0.79125,0.72875,0.74375,0.68375,0.49732963042085027,0.500015259254738,0.5309030426953948,0.49915630551354107,0.5035346357964453,0.3211732270062219,0.32929407570999664,0.20438677615016157
0.6425,0.63375,0.685,0.61875,0.7275,0.55625,0.8875,0.85375,0.79125,0.72875,0.74375,0.68375,0.49736320078127383,0.5000885036774804,0.5309121982482375,0.4988987566616249,0.503827708609376,0.35336058965716866,0.32316496554286145,0.2259853825072637
0.642,0.63275,0.68475,0.6195,0.72675,0.55475,0.88775,0.85225,0.7925,0.7297499999999999,0.745,0.691,0.4973937192907498,0.5001098666341136,0.5309579760124515,0.49831261101840085,0.5042451153639896,0.35336058965716866,0.32316496554286145,0.2259853825072637
0.6415000000000001,0.6317499999999999,0.6845,0.62025,0.726,0.55325,0.888,0.85075,0.79375,0.73075,0.74625,0.69825,0.4974547563097018,0.5000823999755852,0.5310281685842464,0.49765541739237834,0.5048401420452147,0.35814366470790193,0.32186098317518275,0.2270142571769434
0.6409999999999999,0.63075,0.68425,0.621,0.7252500000000001,0.55175,0.88825,0.84925,0.795,0.73175,0.7475,0.7055,0.49740287484359264,0.5001037629322184,0.5311807611316264,0.49696269977929736,0.5056216696389639,0.3672969218118502,0.32355811799587836,0.22960518332578886
0.6405,0.62975,0.684,0.62175,0.7245,0.55025,0.8885,0.84775,0.79625,0.73275,0.74875,0.7127500000000001,0.49725028229621265,0.5001129184850612,0.5313577684865871,0.4962699821662163,0.5064298401904522,0.36772090183097433,0.3232963841258399,0.2291002092208135
0.64,0.62875,0.68375,0.6225,0.72375,0.54875,0.88875,0.84625,0.7975,0.73375,0.75,0.72,0.4970213934751427,0.4999969481490524,0.5313638721884824,0.49572824153937034,0.5071047957448941,0.3720688990401771,0.3232972120028065,0.23153941137400946
0.64,0.62875,0.68375,0.6225,0.72375,0.54875,0.88875,0.84625,0.7975,0.73375,0.75,0.72,0.4968535416730247,0.4999481185338908,0.5312448500015259,0.49548845471136804,0.5075577264431597,0.3864375332306876,0.3208198347332379,0.2384837769503182
0.64,0.62875,0.68375,0.6225,0.72375,0.54875,0.88875,0.84625,0.7975,0.73375,0.75,0.72,0.4966490676595355,0.4999206518753624,0.5311777092806788,0.4953730018250487,0.5076376553858272,0.3920879827583799,0.318472087443573,0.24593795147365727
0.63925,0.6285000000000001,0.68375,0.62225,0.72225,0.54725,0.8902500000000001,0.848,0.79975,0.736,0.753,0.7284999999999999,0.4966521195104831,0.4999481185338908,0.5312540055543687,0.4947957372545507,0.5076465363022896,0.3920879827583799,0.318472087443573,0.24593795147365727
0.6385000000000001,0.62825,0.68375,0.622,0.72075,0.5457500000000001,0.8917499999999999,0.8497499999999999,0.802,0.7382500000000001,0.7559999999999999,0.737,0.4966185491500595,0.4999328592791528,0.5312326425977355,0.493969804800687,0.5076998222177675,0.39860581756383173,0.31468824417542585,0.25043213428904254
0.63775,0.628,0.68375,0.62175,0.71925,0.54425,0.89325,0.8515,0.80425,0.7404999999999999,0.759,0.7454999999999999,0.4966124454481643,0.4998687704092532,0.5312601092562639,0.49311722931963375,0.5079040851021178,0.4129439340928247,0.3127348887240605,0.265460029672821
0.637,0.62775,0.68375,0.6214999999999999,0.7177500000000001,0.54275,0.8947499999999999,0.8532500000000001,0.8065000000000001,0.74275,0.762,0.754,0.4965269936216315,0.4997131260109256,0.5312875759147924,0.49246891672293086,0.5080550620709903,0.5061752280165072,0.2795921142531778,0.3111550045365745
0.63625,0.6275,0.68375,0.62125,0.71625,0.54125,0.89625,0.855,0.80875,0.745,0.765,0.7625,0.49635303811761833,0.49949339274269844,0.5310800500503555,0.49194493806791084,0.5081438719301201,0.5201115601711888,0.2786799056236459,0.317963695196968
0.63625,0.6275,0.68375,0.62125,0.71625,0.54125,0.89625,0.855,0.80875,0.745,0.765,0.7625,0.49620349742118597,0.4991729483932005,0.5308389538254952,0.4924866786947568,0.5075932502479106,0.5201115601711888,0.2786799056236459,0.317963695196968
0.63625,0.6275,0.68375,0.62125,0.71625,0.54125,0.89625,0.855,0.80875,0.745,0.765,0.7625,0.49614551225318154,0.4989654225287637,0.5306558427686392,0.4936145650169148,0.5066962698372924,0.5432150230579267,0.2772479490299967,0.3286359130107949
0.63575,0.62725,0.6835,0.621,0.71575,0.541,0.89825,0.8554999999999999,0.80975,0.74625,0.7665000000000001,0.7645000000000001,0.49609973448896755,0.4989349040192877,0.5304025391399884,0.4946980463400573,0.5054973356278305,0.555859995316125,0.2762057005323565,0.33248977859226947
0.63525,0.627,0.68325,0.62075,0.71525,0.5407500000000001,0.9002500000000001,0.856,0.8107500000000001,0.7475,0.768,0.7665000000000001,0.49613940855128635,0.4988952299569689,0.530252998443556,0.4957104797064454,0.5038277086354199,0.555859995316125,0.2762057005323565,0.33248977859226947
0.63475,0.6267499999999999,0.6829999999999999,0.6204999999999999,0.71475,0.5405,0.90225,0.8565,0.81175,0.74875,0.7695000000000001,0.7685,0.49621570482497634,0.4988586077455977,0.530481887264626,0.497087033825156,0.5021314386939517,0.5685077433800247,0.27542366786029726,0.33943649506996676
0.63425,0.6265,0.6827500000000001,0.62025,0.7142499999999999,0.54025,0.90425,0.857,0.8127500000000001,0.75,0.7709999999999999,0.7705,0.49640797143467513,0.49915463728751486,0.5308725241859188,0.4978774423440491,0.5013055062400881,0.5920490545135945,0.2688996150169591,0.3466414975713648
0.63375,0.62625,0.6825,0.62,0.71375,0.54,0.90625,0.8575,0.81375,0.75125,0.7725,0.7725,0.49656361583300274,0.4996215704824976,0.5315805536057618,0.4976642984737858,0.5021225577080388,0.6003321613348821,0.26602867216594606,0.35178302598837285
0.63375,0.62625,0.6825,0.62,0.71375,0.54,0.90625,0.8575,0.81375,0.75125,0.7725,0.7725,0.4968169194616535,0.500122074037904,0.5324655903805658,0.4975932505170314,0.5032060390311813,0.6086152573553694,0.2648543149178367,0.35474533533789565
0.63375,0.62625,0.6825,0.62,0.71375,0.54,0.90625,0.8575,0.81375,0.75125,0.7725,0.7725,0.49703970458082825,0.5007019257179479,0.5338999603259377,0.4964476021535969,0.5064476019886519,0.6291165806100294,0.2609405711111684,0.36028796825477755
0.63375,0.62625,0.6825,0.62,0.71375,0.54,0.90625,0.8575,0.81375,0.75125,0.7725,0.7725,0.49741813409833063,0.5011078218939787,0.5361491744743186,0.4944493783264718,0.5122468917278535,0.8258522633471459,0.24256317027302804,0.4481511505574229
0.63325,0.6265,0.682,0.62,0.7142499999999999,0.539,0.90825,0.8584999999999999,0.8142499999999999,0.75275,0.773,0.7735,0.4976409192175054,0.5011963255714591,0.5401348918118839,0.49328596798253005,0.5235346361436979,0.8258522633471459,0.24256317027302804,0.4481511505574229
0.63275,0.6267499999999999,0.6815000000000001,0.62,0.71475,0.5379999999999999,0.91025,0.8595,0.81475,0.75425,0.7735,0.7745000000000001,0.4977629932554094,0.499786370433668,0.5454847865230262,0.4956927174568173,0.5382948494545967,0.8607943485373571,0.24152174803224294,0.46382955122567726
0.63225,0.627,0.6809999999999999,0.62,0.71525,0.537,0.9122499999999999,0.8604999999999999,0.81525,0.75575,0.774,0.7755,0.4979552598651082,0.4993896298104801,0.5506668294320506,0.49978685606028617,0.5599200716129368,0.9503069106836777,0.2372195387550715,0.5085693275984622
0.6317499999999999,0.62725,0.6805,0.62,0.71575,0.536,0.91425,0.8615,0.81575,0.75725,0.7745000000000001,0.7765000000000001,0.4982573931089206,0.500045777764214,0.5553209021271401,0.5049023090855066,0.5935701598095477,0.9503069106836777,0.2372195387550715,0.5085693275984622
0.63125,0.6275,0.68,0.62,0.71625,0.535,0.91625,0.8625,0.81625,0.75875,0.775,0.7775,0.49849848933378094,0.5008575701162755,0.5599017303994873,0.5099555950009845,0.6294937823444986,0.9729974913736976,0.23643709295458473,0.5213024860718909
0.63125,0.6275,0.68,0.62,0.71625,0.535,0.91625,0.8625,0.81625,0.75875,0.775,0.7775,0.4990691854609821,0.5014618366039003,0.5638813440351573,0.5134103019242129,0.6652930712155687,0.9974034119793254,0.23278232720832634,0.5390704373342428
0.63125,0.6275,0.68,0.62,0.71625,0.535,0.91625,0.8625,0.81625,0.75875,0.775,0.7775,0.4990691854609821,0.5036042359691153,0.5689443647572252,0.5116163410682513,0.6997335700059072,1.0,0.22990986955307885,0.5433426238338687
0.6325,0.62925,0.682,0.622,0.7184999999999999,0.5407500000000001,0.9205,0.86675,0.82025,0.76375,0.77725,0.7805,0.49499496444593644,0.5067506942960905,0.5754509109775079,0.5087033747371437,0.7298934284468462,1.0,0.22990986955307885,0.5433426238338687
0.63375,0.631,0.684,0.624,0.72075,0.5465,0.92475,0.871,0.8242499999999999,0.76875,0.7795000000000001,0.7835,0.49079866939298683,0.508890041810358,0.5818720053712576,0.5056305505207012,0.7464742468562803,0.9903700549709975,0.2279504484043299,0.5467116967198719
0.635,0.63275,0.6859999999999999,0.626,0.723,0.55225,0.929,0.8752500000000001,0.82825,0.77375,0.78175,0.7865000000000001,0.48550370799890136,0.5119907223731193,0.5831019013031403,0.5110923623437807,0.7537655430275451,0.9248311005936758,0.22442089945430188,0.5330279961302054
0.63625,0.6345000000000001,0.688,0.628,0.7252500000000001,0.5579999999999999,0.93325,0.8795000000000001,0.8322499999999999,0.77875,0.784,0.7895,0.48203070162053285,0.5178991058076724,0.5760582293160802,0.5240941384992931,0.7525133222775505,0.5014642861112151,0.28845399606369615,0.30444046269062064
0.6375,0.63625,0.69,0.63,0.7275,0.56375,0.9375,0.88375,0.83625,0.78375,0.78625,0.7925,0.47860652485732597,0.5200842310861538,0.5641621143223365,0.5430639434736063,0.7287211346949044,0.5014642861112151,0.28845399606369615,0.30444046269062064
0.6375,0.63625,0.69,0.63,0.7275,0.56375,0.9375,0.88375,0.83625,0.78375,0.78625,0.7925,0.469670705282754,0.5200964384899441,0.5443708609271524,0.5614653647938842,0.6994671377893975,0.43743862647690274,0.3005795568095938,0.2603878414897617
0.6375,0.63625,0.69,0.63,0.7275,0.56375,0.9375,0.88375,0.83625,0.78375,0.78625,0.7925,0.4633594775231178,0.5174077578051088,0.5230536820581683,0.5754174076574705,0.658685609362242,0.1709912351396783,0.3244023840102449,0.04189244784172393
0.63925,0.638,0.69025,0.631,0.7302500000000001,0.56775,0.9377500000000001,0.8847499999999999,0.836,0.78375,0.78625,0.7927500000000001,0.4641499069185461,0.5095645008697776,0.5079317606128116,0.5694760221783863,0.5979396073789572,0.1709912351396783,0.3244023840102449,0.04189244784172393
0.6409999999999999,0.63975,0.6905,0.632,0.733,0.57175,0.938,0.88575,0.83575,0.78375,0.78625,0.7929999999999999,0.4627277443769646,0.49906308175908687,0.4996978667561876,0.5568028428489072,0.5399289515570919,0.1709912351396783,0.3244023840102449,0.04189244784172393
0.64275,0.6415000000000001,0.69075,0.633,0.73575,0.57575,0.93825,0.8867499999999999,0.8355,0.78375,0.78625,0.79325,0.4609149449140904,0.49305398724326305,0.49474166081728566,0.5326731801628853,0.5044316174571729,0.13315341756063903,0.31564959402638976,0.009757546007318664
0.6445000000000001,0.64325,0.691,0.634,0.7384999999999999,0.57975,0.9384999999999999,0.88775,0.83525,0.78375,0.78625,0.7935,0.4746818445387127,0.4901333658864101,0.4968779564806055,0.5021847251737153,0.47758437044265656,0.1502046357445728,0.3024641385286042,0.002566668383414162
0.64625,0.645,0.69125,0.635,0.74125,0.58375,0.93875,0.88875,0.835,0.78375,0.78625,0.79375,0.48652912991729486,0.49016083254493853,0.5008453627124851,0.4778774424916315,0.4600532871655874,0.15848497216055896,0.30050692235158044,0.001545273117047732
0.64625,0.645,0.69125,0.635,0.74125,0.58375,0.93875,0.88875,0.835,0.78375,0.78625,0.79375,0.49313028351695304,0.49410077211828973,0.5029877620777001,0.46776198988311424,0.46483126217051,0.15673633877773238,0.3005073371001195,0.0005153446789402847
0.6467499999999999,0.6455,0.6915,0.63425,0.7415,0.58375,0.9390000000000001,0.8897499999999999,0.835,0.7845,0.78625,0.79475,0.49985656300546283,0.498010193182165,0.5051179540391247,0.46028419266042403,0.4675577269987639,0.15412865293465144,0.30037702019294793,0.0010314016047470367
0.64725,0.6459999999999999,0.69175,0.6335000000000001,0.74175,0.58375,0.9392499999999999,0.89075,0.835,0.78525,0.78625,0.7957500000000001,0.507867671742912,0.5005615405743583,0.5060701315347759,0.46182948545939356,0.46603907681028073,0.1545554087594772,0.30102983925375393,0.0012883231646329824
0.64775,0.6465000000000001,0.6920000000000001,0.63275,0.742,0.58375,0.9395,0.8917499999999999,0.835,0.7859999999999999,0.78625,0.79675,0.5105471968749047,0.49936216315195164,0.5063905758842738,0.47137655469167744,0.4580106580442821,0.15717696283026591,0.3007685185121431,0.001416869122162448
0.64825,0.647,0.6922499999999999,0.632,0.74225,0.58375,0.93975,0.89275,0.835,0.78675,0.78625,0.7977500000000001,0.512915433210242,0.49754325998718224,0.5060518204290902,0.47982238069844335,0.45214032017469974,0.15717696283026591,0.3007685185121431,0.001416869122162448
0.64875,0.6475,0.6925,0.63125,0.7425,0.58375,0.94,0.89375,0.835,0.7875,0.78625,0.79875,0.5146366771446883,0.4958281197546312,0.50520035401471,0.4856749559016945,0.448214919817424,0.156739114583434,0.30116029225028984,0.0016710106478667853
0.64875,0.6475,0.6925,0.63125,0.7425,0.58375,0.94,0.89375,0.835,0.7875,0.78625,0.79875,0.5157383953367718,0.49382610553300577,0.5044404431287576,0.49041740678933887,0.4450621665541383,0.15760094284939005,0.30037702019294793,0.0006446888721379238
0.64875,0.6475,0.6925,0.63125,0.7425,0.58375,0.94,0.89375,0.835,0.7875,0.78625,0.79875,0.5159459212012085,0.49184240241706595,0.5038544877468184,0.4963232683247711,0.44088809886910096,0.15498493498960436,0.3016827960240358,0.0015467397939664285
0.64875,0.6475,0.6925,0.63125,0.7425,0.58375,0.94,0.89375,0.835,0.7875,0.78625,0.79875,0.5143986327707755,0.49002960295419173,0.5034241767632068,0.5022557727484918,0.43521314310630754,0.15629571472519885,0.3008997993856456,0.002185581427592203
0.64875,0.6475,0.6925,0.63125,0.7425,0.58375,0.94,0.89375,0.835,0.7875,0.78625,0.79875,0.5117557298501542,0.48829309976500745,0.5033265175328837,0.508072824146992,0.42702486728838035,0.1584738743381526,0.3007687939310948,0.000644697795504131
0.64925,0.64775,0.6927500000000001,0.632,0.7425,0.584,0.9405,0.8945000000000001,0.83625,0.7885,0.7865000000000001,0.79975,0.5082399975585192,0.4864864040040284,0.5034150212103641,0.5138277085746508,0.417815275381889,0.1584738743381526,0.3007687939310948,0.000644697795504131
0.6497499999999999,0.648,0.693,0.63275,0.7425,0.5842499999999999,0.941,0.8952500000000001,0.8375,0.7895,0.78675,0.8007500000000001,0.504193243202002,0.4847529526657918,0.5029663991210669,0.5173534635588094,0.407690941162404,0.1584738743381526,0.3007687939310948,0.000644697795504131
0.6502500000000001,0.64825,0.69325,0.6335000000000001,0.7425,0.5845,0.9415,0.8959999999999999,0.83875,0.7905,0.787,0.80175,0.5001312295907467,0.48338267159031956,0.5021607104709006,0.5177708703828735,0.3982504445944823,0.1541064572898388,0.3010301146727057,0.001928901609809022
0.65075,0.6485,0.6934999999999999,0.63425,0.7425,0.58475,0.9420000000000001,0.8967499999999999,0.84,0.7915000000000001,0.7872499999999999,0.8027500000000001,0.495501571703238,0.48300424207281717,0.5006103701895199,0.515559502598672,0.3913943176358108,0.15629293891949722,0.29959471372204854,0.0019338305528167675
0.65125,0.64875,0.69375,0.635,0.7425,0.585,0.9425,0.8975,0.84125,0.7925,0.7875,0.80375,0.49157383953367717,0.482921842097232,0.4990813928647725,0.5128330372148139,0.3871047976200583,0.15629293891949722,0.29959471372204854,0.0019338305528167675
0.65125,0.64875,0.69375,0.635,0.7425,0.585,0.9425,0.8975,0.84125,0.7925,0.7875,0.80375,0.48653523361919004,0.4837092196417127,0.4968291268654439,0.5091119005405695,0.38825932759446047,0.15804157230232377,0.29998621204124365,0.00218915726379663
0.65125,0.64875,0.69375,0.635,0.7425,0.585,0.9425,0.8975,0.84125,0.7925,0.7875,0.80375,0.4812768944364757,0.48527176732688376,0.49463484603411967,0.5055328595888451,0.3976554202745752,0.15586341268937,0.3005080256474988,0.0006469489174340836
0.65125,0.64875,0.69375,0.635,0.7425,0.585,0.9425,0.8975,0.84125,0.7925,0.7875,0.80375,0.47482528153324993,0.48722800378429515,0.49290444654683063,0.5016074599260746,0.41654529529918843,0.15672801676102766,0.30090007480459735,0.001158068788082015
0.6515000000000001,0.649,0.69375,0.635,0.7425,0.58475,0.9425,0.8975,0.84175,0.7935,0.7885,0.80475,0.4693075350199896,0.48872035889767146,0.49178136539811396,0.49711367674816975,0.4438188285263199,0.15672801676102766,0.30090007480459735,0.001158068788082015
0.6517499999999999,0.64925,0.69375,0.635,0.7425,0.5845,0.9425,0.8975,0.8422499999999999,0.7945,0.7895,0.8057500000000001,0.4640552995391705,0.49053010650959805,0.4904263435773797,0.49078152761111193,0.4779307274348021,0.1576037186550917,0.30037771036043875,0.0010288519556566303
0.652,0.6495000000000001,0.69375,0.635,0.7425,0.5842499999999999,0.9425,0.8975,0.8427500000000001,0.7955,0.7905,0.80675,0.46064638203070163,0.4923886837366863,0.49094210638752406,0.4829484904310233,0.5125133208885401,0.15497938877860132,0.3006388917724623,0.0010300517428041642
0.65225,0.6497499999999999,0.69375,0.635,0.7425,0.584,0.9425,0.8975,0.84325,0.7965000000000001,0.7915000000000001,0.8077500000000001,0.45912961210974457,0.49539780877101963,0.49295937986388744,0.47010657169205483,0.5452664297162907,0.1584738743381526,0.30090035022354905,0.0028361288952537976
0.6525,0.65,0.69375,0.635,0.7425,0.58375,0.9425,0.8975,0.84375,0.7975,0.7925,0.80875,0.46685995056001467,0.5023133030182806,0.49172643208105715,0.4575133217219463,0.5718028409042926,0.15716031879685652,0.30103094254967233,0.001028172157394545
0.6525,0.65,0.69375,0.635,0.7425,0.58375,0.9425,0.8975,0.84375,0.7975,0.7925,0.80875,0.4782494582964568,0.5031464583269754,0.5020294808801539,0.4148579047809964,0.5024866777224495,0.15716031879685652,0.30103094254967233,0.001028172157394545
0.6525,0.65,0.69375,0.635,0.7425,0.58375,0.9425,0.8975,0.84375,0.7975,0.7925,0.80875,0.4846339304788354,0.5131809442426832,0.5233619190038759,0.44841030303542134,0.41457371045375974,0.1580276986742158,0.30050843877592637,0.0015467316818153125
0.6517499999999999,0.64825,0.6940000000000001,0.63375,0.74175,0.5792499999999999,0.941,0.89625,0.8434999999999999,0.7975,0.7929999999999999,0.80975,0.4832453382976775,0.5075289162877286,0.5080782494582965,0.4574955604446256,0.3778241539370336,0.13693317386023557,0.3357562483953302,0.020436371168215707
0.6509999999999999,0.6465000000000001,0.6942499999999999,0.6325,0.741,0.57475,0.9395,0.895,0.84325,0.7975,0.7935,0.8107500000000001,0.4846644489883114,0.49926145207068084,0.5412488174077578,0.46650977052213016,0.3302397854389918,0.3232348675845093,0.26466501137176496,0.2079118643597457
0.6502500000000001,0.6447499999999999,0.6945,0.63125,0.7402500000000001,0.57025,0.938,0.89375,0.843,0.7975,0.794,0.81175,0.4934995574816126,0.4942472609637745,0.5537675099948118,0.47585257631445954,0.31357015925394355,0.3232348675845093,0.26466501137176496,0.2079118643597457
0.6495000000000001,0.643,0.69475,0.63,0.7395,0.56575,0.9365000000000001,0.8925,0.8427500000000001,0.7975,0.7945,0.8127500000000001,0.49032258064516127,0.4946470534379101,0.5543565172276986,0.518428064312742,0.3942895200157525,0.372520620915117,0.2997862238599569,0.22419691602363484
0.64875,0.64125,0.695,0.62875,0.73875,0.56125,0.935,0.89125,0.8425,0.7975,0.795,0.81375,0.4919156468398083,0.4871028778954436,0.5415936765648366,0.48815275312438466,0.48895204380116836,0.6262920416970083,0.5944108924307137,0.7987037838745907
0.6465000000000001,0.638,0.6927500000000001,0.6265,0.7345,0.55625,0.9307500000000001,0.8845000000000001,0.83825,0.79025,0.79,0.80475,0.5003295999023407,0.4922788171025727,0.5643421735282449,0.4863321492412336,0.50231794128197,0.6262920416970083,0.5944108924307137,0.7987037838745907
0.64425,0.63475,0.6905,0.62425,0.7302500000000001,0.55125,0.9265000000000001,0.87775,0.8340000000000001,0.7829999999999999,0.785,0.7957500000000001,0.5052888576921903,0.4983886226996673,0.537534714804529,0.4901509768994219,0.5223001780600346,0.7099992708379653,0.10393154640167364,0.5167396241628716
0.642,0.6315,0.68825,0.622,0.726,0.54625,0.9222499999999999,0.871,0.82975,0.77575,0.78,0.78675,0.49624011963255715,0.4975768303476058,0.537214270455031,0.49706039074587866,0.509094139020172,0.6577262375343778,0.08550548551521102,0.46805538976121414
0.63975,0.62825,0.6859999999999999,0.61975,0.72175,0.54125,0.9179999999999999,0.86425,0.8255,0.7685,0.775,0.77775,0.4957029938657796,0.49824518570513016,0.5339793084505753,0.4996181171543131,0.49391651886784643,0.6668989144774371,0.07022864268801765,0.45950786194640025
0.6375,0.625,0.68375,0.6175,0.7175,0.53625,0.91375,0.8575,0.82125,0.76125,0.77,0.76875,0.49497970519119844,0.4967467268898587,0.5334696493423261,0.5010213143002131,0.47537300180768605,0.6475696670796928,0.07035771696968347,0.4747923665722474
0.636,0.62375,0.682,0.61675,0.7145,0.5347500000000001,0.914,0.8565,0.8192499999999999,0.7605,0.76925,0.7685,0.4958738975188452,0.4980193487350078,0.5337809381389813,0.5021403196017329,0.4828063944133386,0.5981701705201203,0.0933318682125176,0.4853919392617678
0.6345000000000001,0.6225,0.68025,0.616,0.7115,0.53325,0.91425,0.8554999999999999,0.8172499999999999,0.7597499999999999,0.7685,0.76825,0.4967680898464919,0.49929197058015684,0.5340922269356365,0.5032593249032526,0.49023978701899124,0.5981701705201203,0.0933318682125176,0.4853919392617678
0.633,0.62125,0.6785,0.61525,0.7084999999999999,0.53175,0.9145,0.8545,0.81525,0.759,0.76775,0.768,0.4967253639332255,0.499877925962096,0.5315836054567095,0.5019715807652103,0.49865896982494134,0.589801067726084,0.12087754310417975,0.4981816507853679
0.6315,0.62,0.67675,0.6145,0.7055,0.53025,0.91475,0.8534999999999999,0.81325,0.75825,0.767,0.76775,0.49707022309030424,0.49953611865596487,0.5327097384563738,0.5036145647912006,0.5005861456605867,0.5768541806944312,0.24540268782165034,0.4467760241311705
0.63,0.61875,0.675,0.61375,0.7025,0.52875,0.915,0.8525,0.81125,0.7575,0.76625,0.7675,0.49737235633411664,0.5004882961516159,0.5334299752800074,0.5055062166831941,0.5051154529210446,0.5611719909626246,0.25884600998336993,0.43750246122664344
0.63,0.61875,0.675,0.61375,0.7025,0.52875,0.915,0.8525,0.81125,0.7575,0.76625,0.7675,0.49710379345072786,0.500442518387402,0.5331644642475661,0.5063587922336978,0.5092717583911791,0.5542246299270457,0.2721588840088881,0.42837689235069065
0.63,0.61875,0.675,0.61375,0.7025,0.52875,0.915,0.8525,0.81125,0.7575,0.76625,0.7675,0.49684133426923427,0.5007812738425855,0.5334421826837977,0.5063055063182199,0.514049733569728,0.5320412656243974,0.28768684897592145,0.4052643249685677
0.631,0.6195,0.6759999999999999,0.6135,0.703,0.52925,0.9172499999999999,0.8534999999999999,0.81375,0.7609999999999999,0.7685,0.77075,0.49651783806878874,0.5008453627124851,0.5334971160008545,0.5057371226294591,0.5222380103946879,0.5181160312921221,0.288335258093277,0.39217943498049895
0.632,0.62025,0.677,0.6132500000000001,0.7034999999999999,0.52975,0.9195,0.8545,0.81625,0.7645000000000001,0.77075,0.774,0.49625537888729515,0.5009247108371228,0.5336497085482345,0.5049733570769863,0.529493783177905,0.5028938908523604,0.28676416470555544,0.37922425585485753
0.633,0.621,0.6779999999999999,0.613,0.7040000000000001,0.53025,0.92175,0.8554999999999999,0.81875,0.768,0.773,0.77725,0.49602954191717274,0.50030518509476,0.5332346568193609,0.5034724689471423,0.5359147425907957,0.4737576085023295,0.28453529309578557,0.34804508142367246
0.634,0.62175,0.679,0.61275,0.7045,0.53075,0.924,0.8565,0.82125,0.7715000000000001,0.7752500000000001,0.7805,0.4956785790581988,0.5002807702871792,0.5331186864833521,0.5019715808172982,0.5423357020036865,0.46027577402828945,0.2847913760169794,0.3335503652830253
0.635,0.6225,0.68,0.6125,0.705,0.53125,0.92625,0.8575,0.82375,0.775,0.7775,0.78375,0.49520554216132084,0.4996856593523972,0.5322092349009675,0.5010479573534466,0.5478241567150546,0.46027577402828945,0.2847913760169794,0.3335503652830253
0.635,0.6225,0.68,0.6125,0.705,0.53125,0.92625,0.8575,0.82375,0.775,0.7775,0.78375,0.4947691274758141,0.49959410382396924,0.5308206427198096,0.5004973357059623,0.5482060395954668,0.44114348462615693,0.28713457565371797,0.3094253260007449
0.636,0.6232500000000001,0.6807500000000001,0.613,0.7075,0.5325,0.929,0.86275,0.8255,0.778,0.7797499999999999,0.787,0.4941526535843989,0.4996154667806024,0.5287148655659658,0.49973357015348957,0.5463676736363139,0.42677485043564645,0.28908958685901653,0.2997948170908513
0.637,0.624,0.6815000000000001,0.6135,0.71,0.53375,0.93175,0.868,0.8272499999999999,0.7809999999999999,0.782,0.79025,0.4936216315195166,0.4995757927182836,0.5271858882412183,0.4988809946550737,0.5421314388415341,0.3283670191036241,0.3017300692569306,0.23366787676814393
0.638,0.62475,0.6822499999999999,0.614,0.7125,0.535,0.9345,0.8732500000000001,0.8290000000000001,0.784,0.78425,0.7935,0.49301431318094424,0.49950560014648887,0.5254371776482436,0.4979573711999034,0.5361456480856324,0.3283670191036241,0.3017300692569306,0.23366787676814393
0.639,0.6255,0.6829999999999999,0.6145,0.715,0.53625,0.9372499999999999,0.8785,0.83075,0.787,0.7865000000000001,0.79675,0.4925809503463851,0.49958494827112643,0.5242164372692037,0.49748667848640526,0.5286500884744131,0.32708120541814373,0.3004231901299244,0.22711799779884245
0.64,0.62625,0.68375,0.615,0.7175,0.5375,0.94,0.88375,0.8325,0.79,0.78875,0.8,0.4923490096743675,0.49958494827112643,0.5241523483993041,0.4972024866593875,0.5199644758479964,0.32186860413728335,0.2967662194119408,0.22044565049561482
0.64,0.62625,0.68375,0.615,0.7175,0.5375,0.94,0.88375,0.8325,0.79,0.78875,0.8,0.4923978392895291,0.4996612445448164,0.5251380962553789,0.4965985790617001,0.5115186498412305,0.32101787369373364,0.29506811900480273,0.21672432205001047
0.64,0.62625,0.68375,0.615,0.7175,0.5375,0.94,0.88375,0.8325,0.79,0.78875,0.8,0.4925382244331187,0.499816888943144,0.5265266884365367,0.49608348139259306,0.5047158080340812,0.32102896611573983,0.2927176126652863,0.21300686472291047
0.64,0.62625,0.68425,0.6145,0.718,0.5375,0.94075,0.8852500000000001,0.8334999999999999,0.7907500000000001,0.78875,0.8009999999999999,0.4927549058503983,0.5000030518509476,0.5281350138859218,0.49563943168024044,0.4996625221880538,0.3193108557948309,0.28853896767063486,0.20646588316093437
0.64,0.62625,0.68475,0.614,0.7184999999999999,0.5375,0.9415,0.8867499999999999,0.8345,0.7915000000000001,0.78875,0.802,0.49292886135441144,0.500167851802118,0.5293588061159094,0.49497335711171153,0.49640319723271326,0.3180056222702395,0.28684100497297266,0.20467283006707415
0.64,0.62625,0.68525,0.6135,0.7190000000000001,0.5375,0.9422499999999999,0.88825,0.8355,0.7922499999999999,0.78875,0.8029999999999999,0.49309366130558185,0.5000823999755852,0.5302468947416609,0.4942539964888037,0.4950266430271895,0.3180056222702395,0.28684100497297266,0.20467283006707415
0.64,0.62625,0.6857500000000001,0.613,0.7195,0.5375,0.943,0.8897499999999999,0.8365,0.7929999999999999,0.78875,0.804,0.4931638538773766,0.4999298074282052,0.5305154576250496,0.4941563055048598,0.49488454711368063,0.32062995754713003,0.285535091432409,0.20274813623004018
0.64,0.62625,0.68625,0.6125,0.72,0.5375,0.94375,0.89125,0.8375,0.79375,0.78875,0.805,0.493267616809595,0.4997375408185064,0.5306985686819056,0.49436944937512306,0.49498223802817404,0.31977367549217706,0.283968685027201,0.20185156831113948
0.64,0.62625,0.68625,0.6125,0.72,0.5375,0.94375,0.89125,0.8375,0.79375,0.78875,0.805,0.493313394573809,0.49945677053132725,0.5309579760124515,0.4948046181015627,0.49526642985519176,0.3467484422626636,0.27810323990298935,0.23537862478816904
0.64,0.62625,0.68625,0.6125,0.72,0.5375,0.94375,0.89125,0.8375,0.79375,0.78875,0.805,0.4932737205114902,0.49936826685384683,0.5311563463240455,0.4955683836193102,0.49560390759768747,0.3458644129514946,0.27640720675810065,0.23885163542134308
0.64,0.62625,0.68625,0.6125,0.72,0.5375,0.94375,0.89125,0.8375,0.79375,0.78875,0.805,0.4931821649830622,0.49927671132541884,0.5309976500747704,0.49662522201943904,0.49583481350922726,0.3458644129514946,0.27640720675810065,0.23885163542134308
