C0,C1,C2,C3,C4,C5,C6,C7,C8,C9,C10,C11,Ax,Ay,Az,Gr,Gp,Fx_norm,Fy_norm,Fz_norm
0.645,0.63375,0.6875,0.60625,0.72,0.55625,0.88625,0.85,0.76375,0.71375,0.73875,0.64875,0.46052020436600094,0.5068122000309645,0.9723641430562007,0.5016738403077219,0.48947871806574805,0.7696161763582017,0.5250324689750909,0.44633360778160636
0.645,0.63375,0.6875,0.60625,0.72,0.55625,0.88625,0.85,0.76375,0.71375,0.73875,0.64875,0.45999767765908034,0.5070831398049234,0.9720157919182536,0.5021520803956424,0.48941893805475795,0.7696161763582017,0.5250324689750909,0.44633360778160636
0.645,0.63375,0.6875,0.60625,0.72,0.55625,0.88625,0.85,0.76375,0.71375,0.73875,0.64875,0.459684161634928,0.5072457036692987,0.9718067812354854,0.5024390244483947,0.4893830700481639,0.7696161763582017,0.5250324689750909,0.44633360778160636
0.645,0.63375,0.6875,0.60625,0.72,0.55625,0.88625,0.85,0.76375,0.71375,0.73875,0.64875,0.46028797027403623,0.5073385973060845,0.9715745471435207,0.5024390244483947,0.48880918208290547,0.7696161763582017,0.5250324689750909,0.44633360778160636
0.645,0.63375,0.6875,0.60625,0.72,0.55625,0.88625,0.85,0.76375,0.71375,0.73875,0.64875,0.4607988852763586,0.5073850441244775,0.9712029725963771,0.5030129125538995,0.48880918208290547,0.7696161763582017,0.5250324689750909,0.44633360778160636
0.645,0.63375,0.6877500000000001,0.60625,0.72,0.55625,0.8865000000000001,0.85,0.76375,0.71375,0.7384999999999999,0.64875,0.461216906641895,0.5073850441244775,0.9710636321411983,0.5034433286330279,0.48909612613565784,0.7696161763582017,0.5250324689750909,0.44633360778160636
0.645,0.63375,0.688,0.60625,0.72,0.55625,0.8867499999999999,0.85,0.76375,0.71375,0.7382500000000001,0.64875,0.46158848118903856,0.5073385973060845,0.9714816535067348,0.5031563845802756,0.48967001424116247,0.7696161763582017,0.5250324689750909,0.44633360778160636
0.645,0.63375,0.68825,0.60625,0.72,0.55625,0.887,0.85,0.76375,0.71375,0.738,0.64875,0.46209939619136087,0.5076172782164422,0.97124941941477,0.5024390244483947,0.489239598162034,0.7696161763582017,0.5250324689750909,0.44633360778160636
0.645,0.63375,0.6884999999999999,0.60625,0.72,0.55625,0.88725,0.85,0.76375,0.71375,0.73775,0.64875,0.4624709707385044,0.5083139804923362,0.9712029725963771,0.5011477762110093,0.48967001410091626,0.7696161763582017,0.5250324689750909,0.44633360778160636
0.645,0.63375,0.68875,0.60625,0.72,0.55625,0.8875,0.85,0.76375,0.71375,0.7375,0.64875,0.4620529493729679,0.5086855550394798,0.9714816535067348,0.5008608321582569,0.4898134861272924,0.7696161763582017,0.5250324689750909,0.44633360778160636
0.645,0.63375,0.68875,0.60625,0.72,0.55625,0.8875,0.85,0.76375,0.71375,0.7375,0.64875,0.4614955875522527,0.5089177891314445,0.9718532280538783,0.5001434720263762,0.4899569581536686,0.7696161763582017,0.5250324689750909,0.44633360778160636
0.645,0.63375,0.68875,0.60625,0.72,0.55625,0.8875,0.85,0.76375,0.71375,0.7375,0.64875,0.46182071528100327,0.5096609382257316,0.9717138875986995,0.5001434720263762,0.4902439022064209,0.7696161763582017,0.5250324689750909,0.44633360778160636
0.645,0.63375,0.68875,0.60625,0.72,0.55625,0.8875,0.85,0.76375,0.71375,0.7375,0.64875,0.4614955875522527,0.5093822573153739,0.9726428239665583,0.4997130559472477,0.4906743182855494,0.7696161763582017,0.5250324689750909,0.44633360778160636
0.645,0.63375,0.6884999999999999,0.60625,0.72,0.55625,0.8875,0.8497499999999999,0.76375,0.71375,0.7375,0.64875,0.46135624709707385,0.5087320018578727,0.9732930794240595,0.5004304160791285,0.49124820639105404,0.7696161763582017,0.5250324689750909,0.44633360778160636
0.645,0.63375,0.68825,0.60625,0.72,0.55625,0.8875,0.8495,0.76375,0.71375,0.7375,0.64875,0.461216906641895,0.508453320947515,0.9736646539712029,0.49985652797362384,0.4916786224701825,0.7696161763582017,0.5250324689750909,0.44633360778160636
0.645,0.63375,0.688,0.60625,0.72,0.55625,0.8875,0.84925,0.76375,0.71375,0.7375,0.64875,0.4614955875522527,0.5081281932187646,0.9730608453320948,0.5002869440527523,0.49153515044380636,0.7696161763582017,0.5250324689750909,0.44633360778160636
0.645,0.63375,0.6877500000000001,0.60625,0.72,0.55625,0.8875,0.8490000000000001,0.76375,0.71375,0.7375,0.64875,0.46182071528100327,0.5074314909428704,0.9732930794240595,0.5004304160791285,0.4911047343646779,0.7696161763582017,0.5250324689750909,0.44633360778160636
0.645,0.63375,0.6875,0.60625,0.72,0.55625,0.8875,0.84875,0.76375,0.71375,0.7375,0.64875,0.46209939619136087,0.5072457036692987,0.9732001857872736,0.5005738881055046,0.4908177904521718,0.7696100786581948,0.525028712845889,0.44360360383108705
0.645,0.63375,0.6875,0.60625,0.72,0.55625,0.8875,0.84875,0.76375,0.71375,0.7375,0.64875,0.4614026939154668,0.5076637250348351,0.972875058058523,0.5010043041846332,0.49053084639941946,0.7667306474364666,0.5250230786520862,0.43813024708796056
0.645,0.63375,0.6875,0.60625,0.72,0.55625,0.8875,0.84875,0.76375,0.71375,0.7375,0.64875,0.4617278216442174,0.5078959591267999,0.9725963771481654,0.5014347202637617,0.4895265420745401,0.7667306474364666,0.5250230786520862,0.43813024708796056
0.645,0.63375,0.6875,0.60625,0.72,0.55625,0.8875,0.84875,0.76375,0.71375,0.7375,0.64875,0.4610775661867162,0.5079888527635857,0.9724570366929866,0.5020086083692663,0.4890961259954116,0.7667306474364666,0.5250230786520862,0.43813024708796056
0.645,0.63375,0.6875,0.60625,0.72,0.55625,0.8875,0.84875,0.76375,0.71375,0.7375,0.64875,0.4605666511843939,0.5080817464003716,0.9723641430562007,0.501721664316514,0.4880918216705322,0.7657688123713744,0.514337134116283,0.44360963113162816
0.645,0.63375,0.6875,0.60625,0.72,0.55625,0.8875,0.84875,0.76375,0.71375,0.7375,0.64875,0.4605666511843939,0.5076637250348351,0.9718996748722712,0.501721664316514,0.4885222376094145,0.7648313443798508,0.5214610971401519,0.43948483316149617
0.645,0.63375,0.6875,0.60625,0.72,0.55625,0.8875,0.84875,0.76375,0.71375,0.7375,0.64875,0.4603808639108221,0.5066418950301904,0.9717603344170924,0.5021520803956424,0.4882352935566622,0.7657809959081585,0.5268040583606145,0.43675473408858667
0.645,0.63375,0.6875,0.60625,0.72,0.55625,0.8875,0.84875,0.76375,0.71375,0.7375,0.64875,0.4603808639108221,0.5065025545750116,0.9717603344170924,0.5024390244483947,0.4890961258551654,0.7676924943647879,0.5196895077546282,0.4372186488679645
0.645,0.63375,0.6875,0.60625,0.72,0.55625,0.8875,0.8490000000000001,0.76375,0.71375,0.7375,0.64875,0.4611704598235021,0.5068741291221551,0.9726892707849513,0.5010043041846332,0.48952654193429385,0.7657870936081654,0.5054416038017684,0.4367481591136778
0.645,0.63375,0.6875,0.60625,0.72,0.55625,0.8875,0.84925,0.76375,0.71375,0.7375,0.64875,0.4611704598235021,0.5067347886669763,0.9725034835113795,0.5007173601318808,0.4908177903119256,0.7677107756015791,0.5232383207194783,0.43902143146652584
0.645,0.63375,0.6875,0.60625,0.72,0.55625,0.8875,0.8495,0.76375,0.71375,0.7375,0.64875,0.4607988852763586,0.5077101718532281,0.9725499303297724,0.5005738881055046,0.4913916784174302,0.75906029839961,0.5232420768486802,0.4426890135795455
0.645,0.63375,0.6875,0.60625,0.72,0.55625,0.8875,0.8497499999999999,0.76375,0.71375,0.7375,0.64875,0.46135624709707385,0.5089642359498374,0.9732930794240595,0.5,0.4908177903119256,0.75906029839961,0.5232420768486802,0.4426890135795455
0.645,0.63375,0.6875,0.60625,0.72,0.55625,0.8875,0.85,0.76375,0.71375,0.7375,0.64875,0.46112401300510913,0.5094751509521598,0.9734788666976313,0.499139167841743,0.49038737423279705,0.7600343288647157,0.5214686093985557,0.44177844729335813
0.645,0.63375,0.6875,0.60625,0.72,0.55625,0.8875,0.85,0.76375,0.71375,0.7375,0.64875,0.4609846725499303,0.5098931723176963,0.9734324198792382,0.49956958392087153,0.4899569581536686,0.7657992771449497,0.5196857516254263,0.44451178629252686
0.645,0.63375,0.6875,0.60625,0.72,0.55625,0.8875,0.85,0.76375,0.71375,0.7375,0.64875,0.46075243845796565,0.5092429168601951,0.9736646539712029,0.499139167841743,0.4890961259954116,0.7677168733015859,0.5107864430868322,0.43764979830767237
0.645,0.63375,0.6875,0.60625,0.72,0.55625,0.8875,0.85,0.76375,0.71375,0.7375,0.64875,0.4609382257315374,0.5088713423130515,0.9737111007895959,0.49956958392087153,0.48823529383715464,0.7734635403450287,0.5214667313339547,0.44131124935027094
0.645,0.63375,0.6877500000000001,0.60625,0.7202500000000001,0.5565,0.8875,0.8497499999999999,0.764,0.7134999999999999,0.7375,0.64875,0.4609846725499303,0.507756618671621,0.9734324198792382,0.4994261118944954,0.4890961259954116,0.7734635403450287,0.5214667313339547,0.44131124935027094
0.645,0.63375,0.688,0.60625,0.7204999999999999,0.55675,0.8875,0.8495,0.76425,0.71325,0.7375,0.64875,0.4607059916395727,0.5068276823037622,0.9731072921504877,0.49956958392087153,0.4886657097760369,0.7638634116147519,0.5196800953367458,0.4385774347391512
0.645,0.63375,0.68825,0.60625,0.72075,0.557,0.8875,0.84925,0.7645000000000001,0.713,0.7375,0.64875,0.4609382257315374,0.506177426846261,0.9728286112401301,0.5002869440527523,0.4880918216705322,0.7619641085581362,0.5250230786520862,0.4413046138429319
0.645,0.63375,0.6884999999999999,0.60625,0.721,0.55725,0.8875,0.8490000000000001,0.7647499999999999,0.7127500000000001,0.7375,0.64875,0.461216906641895,0.5067347886669763,0.9722712494194148,0.5007173601318808,0.4889526538287892,0.7581228304080864,0.5232420768486802,0.4376511934360616
0.645,0.63375,0.68875,0.60625,0.72125,0.5575,0.8875,0.84875,0.765,0.7125,0.7375,0.64875,0.46168137482582444,0.506130980027868,0.9723641430562007,0.5015781922901378,0.4893830699079177,0.7686604271298869,0.5214667313339547,0.43993253677959104
0.645,0.63375,0.68875,0.60625,0.72125,0.5575,0.8875,0.84875,0.765,0.7125,0.7375,0.64875,0.4611704598235021,0.5070599163957269,0.9720390153274501,0.5020086083692663,0.48923959788154153,0.7657688123713744,0.5125655447307595,0.4367344643719894
0.645,0.63375,0.68875,0.60625,0.72125,0.5575,0.8875,0.84875,0.765,0.7125,0.7375,0.64875,0.46112401300510913,0.5077101718532281,0.9722248026010218,0.5028694405275232,0.48923959788154153,0.7696405552949994,0.5179047498220204,0.4403945519936621
0.645,0.63375,0.6884999999999999,0.60625,0.72125,0.5575,0.8875,0.84875,0.765,0.7125,0.7375,0.64875,0.4606130980027868,0.5072457036692987,0.9718067812354854,0.5030129125538995,0.4899569580134224,0.7696405552949994,0.5179047498220204,0.4403945519936621
0.645,0.63375,0.68825,0.60625,0.72125,0.5575,0.8875,0.84875,0.765,0.7125,0.7375,0.64875,0.46010218300046446,0.5079888527635857,0.9726892707849513,0.5040172167385326,0.48923959788154153,0.7705902068233074,0.5214686093985557,0.4390186239147674
0.645,0.63375,0.688,0.60625,0.72125,0.5575,0.8875,0.84875,0.765,0.7125,0.7375,0.64875,0.45917324663260567,0.508499767765908,0.9725034835113795,0.5038737447121564,0.4880918218107784,0.7648313443798508,0.5268040583606145,0.43627582167902446
0.645,0.63375,0.688,0.60625,0.72125,0.5575,0.88775,0.8490000000000001,0.765,0.7125,0.7375,0.64875,0.4589874593590339,0.5079888527635857,0.9723641430562007,0.5038737447121564,0.48751793384552,0.7648313443798508,0.5268040583606145,0.43627582167902446
0.645,0.63375,0.688,0.60625,0.72125,0.5575,0.888,0.84925,0.765,0.7125,0.7375,0.64875,0.4591267998142127,0.5079424059451928,0.9722248026010218,0.5031563845802756,0.48794835006489473,0.7667428428364801,0.5054472379955713,0.43855801247657544
0.645,0.63375,0.68825,0.60625,0.72125,0.5575,0.88825,0.8495,0.765,0.7125,0.7375,0.64875,0.45880167208546213,0.508499767765908,0.9725963771481654,0.5028694405275232,0.487087518046884,0.7657992771449497,0.5072207054456959,0.43993583723828056
0.645,0.63375,0.6884999999999999,0.60625,0.72125,0.5575,0.8885,0.8497499999999999,0.765,0.7125,0.7375,0.64875,0.45903390617742684,0.5081281932187646,0.9722712494194148,0.5030129125538995,0.4865136298011331,0.7648252585430735,0.5232420768486802,0.43947723778276543
0.645,0.63375,0.68875,0.60625,0.72125,0.5575,0.88875,0.85,0.765,0.7125,0.7375,0.64875,0.45917324663260567,0.5082210868555503,0.9727357176033442,0.5024390244483947,0.48766140587189616,0.7677229591383632,0.5072282177040996,0.43352918860520473
0.645,0.63375,0.68875,0.60625,0.7215,0.55775,0.8885,0.85,0.765,0.7125,0.73725,0.64875,0.4593125870877845,0.5085462145843009,0.9723641430562007,0.5025824964747709,0.4872309896525215,0.7677229591383632,0.5072282177040996,0.43352918860520473
0.645,0.63375,0.68875,0.60625,0.72175,0.5579999999999999,0.88825,0.85,0.765,0.7125,0.737,0.64875,0.4586623316302833,0.5080817464003716,0.9723641430562007,0.5034433286330279,0.48708751776639153,0.7782788370969549,0.5196932638838301,0.4371926516304802
0.645,0.63375,0.68875,0.60625,0.722,0.55825,0.888,0.85,0.765,0.7125,0.73675,0.64875,0.4590803529958198,0.5079888527635857,0.9727821644217371,0.5037302726857802,0.4880918218107784,0.7782788370969549,0.5196932638838301,0.4371926516304802
0.645,0.63375,0.68875,0.60625,0.72225,0.5585,0.88775,0.85,0.765,0.7125,0.7365,0.64875,0.4592196934509986,0.507803065490014,0.9725034835113795,0.5034433286330279,0.4880918218107784,0.7715642372884132,0.5072319738333017,0.43992980993773934
0.645,0.63375,0.68875,0.60625,0.7225,0.55875,0.8875,0.85,0.765,0.7125,0.73625,0.64875,0.4600092893636786,0.5077101718532281,0.9723641430562007,0.504447632817661,0.4872309895122752,0.781146084781899,0.5018908906774399,0.4367326455165894
0.645,0.63375,0.68875,0.60625,0.7225,0.55875,0.8875,0.85,0.765,0.7125,0.73625,0.64875,0.4603808639108221,0.5076172782164422,0.9725963771481654,0.5038737447121564,0.48766140573164996,0.781146084781899,0.5018908906774399,0.4367326455165894
0.645,0.63375,0.68875,0.6065,0.7225,0.55875,0.88775,0.8502500000000001,0.7652500000000001,0.7127500000000001,0.73625,0.64875,0.4614955875522527,0.5079888527635857,0.9719925685090571,0.5030129125538995,0.4866571014067706,0.7763612528035481,0.5107995895390387,0.4408494676184302
0.645,0.63375,0.68875,0.60675,0.7225,0.55875,0.888,0.8504999999999999,0.7655,0.713,0.73625,0.64875,0.4613098002786809,0.5081746400371574,0.9712029725963771,0.5025824964747709,0.48622668546788833,0.790740115812169,0.5072338739927802,0.43856437702922724
0.645,0.63375,0.68875,0.607,0.7225,0.55875,0.88825,0.85075,0.76575,0.71325,0.73625,0.64875,0.4610775661867162,0.5086391082210868,0.9712029725963771,0.5020086083692663,0.4865136298011331,0.790740115812169,0.5072338739927802,0.43856437702922724
0.645,0.63375,0.68875,0.6072500000000001,0.7225,0.55875,0.8885,0.851,0.7659999999999999,0.7134999999999999,0.73625,0.64875,0.4610775661867162,0.5082675336739433,0.9711565257779842,0.5011477762110093,0.4868005741343779,0.7916958650404837,0.5054660407364586,0.43811953284783095
0.645,0.63375,0.68875,0.6075,0.7225,0.55875,0.88875,0.85125,0.76625,0.71375,0.73625,0.64875,0.4607059916395727,0.5085462145843009,0.9717138875986995,0.5014347202637617,0.48694404602050784,0.7859552838338181,0.5125787132778439,0.4422197690638213
0.645,0.63375,0.68875,0.6075,0.7225,0.55875,0.88875,0.85125,0.76625,0.71375,0.73625,0.64875,0.4600557361820715,0.5088713423130515,0.972921504876916,0.5022955524220186,0.4886657103370218,0.7859552838338181,0.5125787132778439,0.4422197690638213
0.645,0.63375,0.68875,0.6075,0.7225,0.55875,0.88875,0.85125,0.76625,0.71375,0.73625,0.64875,0.4601486298188574,0.5090106827682304,0.9727821644217371,0.5028694405275232,0.48880918222315173,0.7802208121903891,0.5125787132778439,0.4394688843074102
0.645,0.63375,0.68875,0.6075,0.72225,0.55875,0.88875,0.851,0.7659999999999999,0.7134999999999999,0.73625,0.64875,0.4608917789131445,0.5080352995819787,0.9731537389688807,0.5034433286330279,0.4895265422147863,0.7802208121903891,0.5125787132778439,0.4394688843074102
0.645,0.63375,0.68875,0.6075,0.722,0.55875,0.88875,0.85075,0.76575,0.71325,0.73625,0.64875,0.4600092893636786,0.5081746400371574,0.9734788666976313,0.5061692969939288,0.488378766003777,0.7945752962622121,0.5143596929863722,0.4431271357787028
0.645,0.63375,0.68875,0.6075,0.72175,0.55875,0.88875,0.8504999999999999,0.7655,0.713,0.73625,0.64875,0.46033441709242917,0.5082675336739433,0.9738968880631677,0.5088952654950759,0.4872309897927677,0.7945752962622121,0.5143596929863722,0.4431271357787028
0.645,0.63375,0.68875,0.6075,0.7215,0.55875,0.88875,0.8502500000000001,0.7652500000000001,0.7127500000000001,0.73625,0.64875,0.4599163957268927,0.5084068741291221,0.9741291221551324,0.5096126256269568,0.4863701576345107,0.7897904642838612,0.5196951419484311,0.4394807313687319
0.645,0.63375,0.68875,0.6075,0.72125,0.55875,0.88875,0.85,0.765,0.7125,0.73625,0.64875,0.45986994890849975,0.5079424059451928,0.9751973989781699,0.5097560976533329,0.4862266857483808,0.7888286292187691,0.512574957148642,0.4390145336519899
0.645,0.63375,0.68875,0.6075,0.72125,0.55875,0.88875,0.85,0.765,0.7125,0.73625,0.64875,0.4592196934509986,0.508453320947515,0.9746400371574547,0.5109038738643422,0.4847919654846191,0.8012655289971854,0.5143672052447761,0.44722797731899433
0.645,0.63375,0.68875,0.6075,0.72125,0.55875,0.88875,0.85,0.765,0.7125,0.73625,0.64875,0.4597306084533209,0.5091035764050162,0.9736182071528101,0.5110473460309646,0.485078909256879,0.8031953086906058,0.5232815603950557,0.4485869649649478
0.6447499999999999,0.63375,0.68875,0.6072500000000001,0.72125,0.5589999999999999,0.88925,0.85,0.765,0.7127500000000001,0.73675,0.64875,0.4599163957268927,0.5090106827682304,0.9729679516953089,0.5100430418463314,0.48794834978440227,0.8041327648188998,0.5250662962327859,0.4527001522384854
0.6445000000000001,0.63375,0.68875,0.607,0.72125,0.55925,0.8897499999999999,0.85,0.765,0.713,0.73725,0.64875,0.4609382257315374,0.5087320018578727,0.9718996748722712,0.5071736013188082,0.49153515044380636,0.825207958262501,0.5126162966647408,0.461838978224571
0.64425,0.63375,0.68875,0.60675,0.72125,0.5595,0.8902500000000001,0.85,0.765,0.71325,0.73775,0.64875,0.4609846725499303,0.5090106827682304,0.9715281003251277,0.5060258251077988,0.49641319906010345,0.8328722214625802,0.5161764001120741,0.46505044559420716
0.644,0.63375,0.68875,0.6065,0.72125,0.55975,0.89075,0.85,0.765,0.7134999999999999,0.7382500000000001,0.64875,0.4617278216442174,0.5094751509521598,0.9718532280538783,0.5040172167385326,0.5017216640360215,0.8328722214625802,0.5161764001120741,0.46505044559420716
0.64375,0.63375,0.68875,0.60625,0.72125,0.56,0.89125,0.85,0.765,0.71375,0.73875,0.64875,0.46182071528100327,0.5092429168601951,0.9726428239665583,0.5,0.5074605450910681,0.8261819887276068,0.4663237718413114,0.45640295557833965
0.6435,0.63375,0.6884999999999999,0.60625,0.72125,0.5595,0.89125,0.85,0.765,0.71375,0.7382500000000001,0.64875,0.46103111936832325,0.5088248954946586,0.972921504876916,0.4955523671823389,0.5090387373812059,0.8386615486796118,0.47166297693257225,0.4564184576454413
0.64325,0.63375,0.68825,0.60625,0.72125,0.5589999999999999,0.89125,0.85,0.765,0.71375,0.73775,0.64875,0.46052020436600094,0.5091964700418021,0.9731537389688807,0.4952654231295866,0.5096126254867105,0.8329209674729463,0.45563594924090733,0.4536907049248228
0.643,0.63375,0.688,0.60625,0.72125,0.5585,0.89125,0.85,0.765,0.71375,0.73725,0.64875,0.4606130980027868,0.5085926614026939,0.9725499303297724,0.493830702865825,0.5117647060225992,0.8329209674729463,0.45563594924090733,0.4536907049248228
0.64275,0.63375,0.6877500000000001,0.60625,0.72125,0.5579999999999999,0.89125,0.85,0.765,0.71375,0.73675,0.64875,0.46065954482117977,0.5079424059451928,0.9730608453320948,0.49311334273394414,0.5147776185764986,0.8291284471964923,0.42000678798831415,0.4345943345404191
0.6425,0.63375,0.6875,0.60625,0.72125,0.5575,0.89125,0.85,0.765,0.71375,0.73625,0.64875,0.4600557361820715,0.5078959591267999,0.9735717603344172,0.49311334273394414,0.5172166428846472,0.7717775262931282,0.48042322031118473,0.3498187007598227
0.6425,0.63375,0.6875,0.60625,0.72125,0.5575,0.89125,0.85,0.765,0.71375,0.73625,0.64875,0.459684161634928,0.5085462145843009,0.9738504412447748,0.49540889515596276,0.5205164994912989,0.7488639712032914,0.44299239854457506,0.3206698653616936
0.6425,0.63375,0.6872499999999999,0.60625,0.72125,0.55725,0.8915000000000001,0.85,0.7647499999999999,0.71375,0.73725,0.6509999999999999,0.45917324663260567,0.5078959591267999,0.9739897816999535,0.4975609755516052,0.5235294120451983,0.7488639712032914,0.44299239854457506,0.3206698653616936
0.6425,0.63375,0.687,0.60625,0.72125,0.557,0.8917499999999999,0.85,0.7645000000000001,0.71375,0.7382500000000001,0.65325,0.45903390617742684,0.5083604273107292,0.975150952159777,0.4997130559472477,0.5238163558174582,0.7363783135512795,0.4483221912179534,0.31201667953240236
0.6425,0.63375,0.68675,0.60625,0.72125,0.55675,0.892,0.85,0.76425,0.71375,0.73925,0.6555,0.45819786344635394,0.5087784486762656,0.97440780306549,0.5,0.5226685796064489,0.732597988674839,0.45185597966599567,0.3024693490004637
0.6425,0.63375,0.6865000000000001,0.60625,0.72125,0.5565,0.89225,0.85,0.764,0.71375,0.7402500000000001,0.6577500000000001,0.4583836507199257,0.508453320947515,0.9725963771481654,0.5018651363428901,0.5202295552983004,0.7307047714550007,0.43404609420120155,0.296993023285765
0.6425,0.63375,0.68625,0.60625,0.72125,0.55625,0.8925,0.85,0.76375,0.71375,0.74125,0.66,0.45787273571760334,0.5078495123084069,0.9707385044124477,0.5045911049842835,0.5140602581641254,0.7287871871615939,0.42870501104533987,0.28835878410709853
0.6425,0.63375,0.68625,0.60625,0.72125,0.55625,0.8925,0.85,0.76375,0.71375,0.74125,0.66,0.45819786344635394,0.5077101718532281,0.9675801207617278,0.5090387378019445,0.5024390241679023,0.7287871871615939,0.42870501104533987,0.28835878410709853
0.6425,0.63375,0.68625,0.60625,0.72125,0.55625,0.8925,0.8497499999999999,0.7659999999999999,0.7155,0.743,0.664,0.4570831398049234,0.5081746400371574,0.9657222480260103,0.5146341469708611,0.4869440458802616,0.7144509843265622,0.46427783035990416,0.2619304029480147
0.6425,0.63375,0.68625,0.60625,0.72125,0.55625,0.8925,0.8495,0.76825,0.7172499999999999,0.7447499999999999,0.6679999999999999,0.4560613098002787,0.5083139804923362,0.9647468648397585,0.5212338603244109,0.4723098994703854,0.7001513321018826,0.387657743893368,0.211392127825491
0.6425,0.63375,0.68625,0.60625,0.72125,0.55625,0.8925,0.84925,0.7705,0.7190000000000001,0.7465,0.672,0.4549001393404552,0.5093822573153739,0.9655364607524384,0.5262553809670841,0.45466284064685597,0.7173243178482835,0.3325184963401714,0.25334668528851756
0.6425,0.63375,0.68625,0.60625,0.72125,0.55625,0.8925,0.8490000000000001,0.77275,0.72075,0.7482500000000001,0.6759999999999999,0.45568973525313516,0.5090571295866233,0.9678123548536925,0.529698709600112,0.4390243900523466,0.7173243178482835,0.3325184963401714,0.25334668528851756
0.6425,0.63375,0.68625,0.60625,0.72125,0.55625,0.8925,0.84875,0.775,0.7225,0.75,0.68,0.4561542034370646,0.5090106827682304,0.9734324198792382,0.5311334301443661,0.43012912413653204,0.7397990995286763,0.4556303150471044,0.4792554756685055
0.64275,0.634,0.6865000000000001,0.60625,0.72125,0.557,0.8915000000000001,0.8482500000000001,0.773,0.721,0.7475,0.67475,0.457361820715281,0.509289363678588,0.9737111007895959,0.5278335733974682,0.4341463403140797,0.7397990995286763,0.4556303150471044,0.4792554756685055
0.643,0.63425,0.68675,0.60625,0.72125,0.55775,0.8905,0.84775,0.7709999999999999,0.7195,0.745,0.6695,0.4586158848118904,0.5083139804923362,0.9750116117045983,0.5243902447644402,0.44175035757177017,0.7330905855569119,0.48411297650061724,0.47420535879421877
0.64325,0.6345000000000001,0.687,0.60625,0.72125,0.5585,0.8895000000000001,0.84725,0.769,0.718,0.7425,0.66425,0.4602415234556433,0.5080352995819787,0.9740826753367395,0.5233859410005457,0.45337159156799317,0.7177864380935516,0.555269795137841,0.4381501968474272
0.6435,0.63475,0.6872499999999999,0.60625,0.72125,0.55925,0.8885,0.84675,0.767,0.7165,0.74,0.659,0.4610775661867162,0.5092429168601951,0.9725034835113795,0.5251076053170597,0.4644189374587115,0.7053678195519263,0.5605826852298108,0.4112758876881984
0.64375,0.635,0.6875,0.60625,0.72125,0.56,0.8875,0.84625,0.765,0.715,0.7375,0.65375,0.4605666511843939,0.511658151416628,0.969763121226196,0.5261119090809542,0.4756097557965447,0.7015874946754859,0.569450044575311,0.38573911751718704
0.64375,0.635,0.6875,0.60625,0.72125,0.56,0.8875,0.84625,0.765,0.715,0.7375,0.65375,0.46065954482117977,0.5126335346028797,0.970599163957269,0.5253945489490733,0.48134863713208365,0.6911047416640586,0.5676371377685663,0.3584160122736247
0.64375,0.635,0.6875,0.60625,0.72125,0.56,0.8875,0.84625,0.765,0.715,0.7375,0.65375,0.46042731072921506,0.5133302368787738,0.9718532280538783,0.521807748149423,0.48522238170399384,0.6806585629894427,0.5729124665685169,0.30280012125856404
0.644,0.63525,0.6877500000000001,0.60675,0.72125,0.56125,0.88725,0.846,0.76425,0.71575,0.73725,0.65375,0.4602415234556433,0.512447747329308,0.9743149094287041,0.5173601151915157,0.4889526542495279,0.697009865865073,0.5159659243075008,0.3092402529729812
0.64425,0.6355,0.688,0.6072500000000001,0.72125,0.5625,0.887,0.84575,0.7635,0.7165,0.737,0.65375,0.4606130980027868,0.5120297259637715,0.9747793776126336,0.5121951222419738,0.493687230979695,0.697009865865073,0.5159659243075008,0.3092402529729812
0.6445000000000001,0.63575,0.68825,0.60775,0.72125,0.56375,0.8867499999999999,0.8454999999999999,0.76275,0.7172499999999999,0.73675,0.65375,0.4611704598235021,0.5095215977705527,0.9747793776126336,0.5094691536005805,0.4969870874461006,0.6758676333110851,0.5106210850224371,0.31241575254914455
0.6447499999999999,0.636,0.6884999999999999,0.6082500000000001,0.72125,0.565,0.8865000000000001,0.8452500000000001,0.762,0.718,0.7365,0.65375,0.4605666511843939,0.5082210868555503,0.9742684626103112,0.5154949785681332,0.49225251043544094,0.6758676333110851,0.5106210850224371,0.31241575254914455
0.645,0.63625,0.68875,0.60875,0.72125,0.56625,0.88625,0.845,0.76125,0.71875,0.73625,0.65375,0.4608917789131445,0.5097538318625174,0.972875058058523,0.5243902442034553,0.48479196478338804,0.6260042490766671,0.5835946549751181,0.31922736890465664
0.645,0.63625,0.68875,0.60875,0.72125,0.56625,0.88625,0.845,0.76125,0.71875,0.73625,0.65375,0.4621458430097538,0.5110543427775197,0.9717603344170924,0.5309899571362664,0.4784791954825906,0.6260042490766671,0.5835946549751181,0.31922736890465664
0.645,0.63625,0.68875,0.60875,0.72125,0.56625,0.88625,0.845,0.76125,0.71875,0.73625,0.65375,0.46274965164886206,0.511611704598235,0.9719461216906642,0.5354375895331888,0.4740315625246833,0.618339985876588,0.6102925584960229,0.31191183736344974
0.645,0.63625,0.68875,0.60875,0.72125,0.56625,0.88625,0.845,0.76125,0.71875,0.73625,0.65375,0.46391082210868556,0.5127264282396656,0.9726892707849513,0.5357245338664335,0.473744618471931,0.6442000112985399,0.6014007622158326,0.31104071516172144
0.645,0.6365,0.68875,0.609,0.72175,0.56675,0.8867499999999999,0.8452500000000001,0.76125,0.7190000000000001,0.7365,0.65375,0.4646539712029726,0.5132373432419879,0.9731072921504877,0.5296987088988809,0.4807747479046092,0.6508963298702906,0.5889413723247826,0.32016337034147746
0.645,0.6367499999999999,0.68875,0.60925,0.72225,0.56725,0.88725,0.8454999999999999,0.76125,0.71925,0.73675,0.65375,0.4646539712029726,0.5128657686948443,0.9736182071528101,0.5223816355536965,0.48981348570655375,0.6470489658834634,0.5907280083219916,0.3247086842210945
0.645,0.637,0.68875,0.6095,0.72275,0.56775,0.88775,0.84575,0.76125,0.7195,0.737,0.65375,0.4633999071063632,0.5137482582443103,0.9732466326056666,0.516212338700014,0.496843615139232,0.643207699596643,0.6085416499159877,0.32698216123120605
0.645,0.63725,0.68875,0.60975,0.7232500000000001,0.56825,0.88825,0.846,0.76125,0.7197499999999999,0.73725,0.65375,0.46182071528100327,0.5135624709707385,0.9739897816999535,0.5067431852396796,0.502869440387277,0.6478950158278022,0.6406181316001405,0.3625355439223371
0.645,0.6375,0.68875,0.61,0.72375,0.56875,0.88875,0.84625,0.76125,0.72,0.7375,0.65375,0.4608917789131445,0.5126799814212727,0.9742684626103112,0.5008608321582569,0.5031563844400294,0.6478950158278022,0.6406181316001405,0.3625355439223371
0.645,0.6375,0.68875,0.61,0.72375,0.56875,0.88875,0.84625,0.76125,0.72,0.7375,0.65375,0.4608917789131445,0.5123548536925221,0.9739897816999535,0.5001434720263762,0.4989956955348744,0.6488263861193191,0.6370711966998914,0.3652465118648347
0.645,0.6375,0.68875,0.61,0.72375,0.56875,0.88875,0.84625,0.76125,0.72,0.7375,0.65375,0.46028797027403623,0.5123548536925221,0.9734324198792382,0.49956958392087153,0.4928263985409456,0.6123129788548135,0.5765251558246772,0.3744047399360193
0.645,0.6375,0.68875,0.61,0.72375,0.56875,0.88875,0.84625,0.76125,0.72,0.7375,0.65375,0.46019507663725034,0.5121226196005574,0.9746400371574547,0.49626972731421976,0.48751793342478134,0.6123129788548135,0.5765251558246772,0.3744047399360193
0.645,0.6375,0.6884999999999999,0.60975,0.7234999999999999,0.56875,0.889,0.846,0.762,0.7202500000000001,0.738,0.65375,0.46103111936832325,0.5119832791453786,0.9739897816999535,0.4967001433933482,0.4832137724932502,0.6266979514266707,0.56940872715409,0.37212682964602634
0.645,0.6375,0.68825,0.6095,0.7232500000000001,0.56875,0.88925,0.84575,0.76275,0.7204999999999999,0.7384999999999999,0.65375,0.4610775661867162,0.5126799814212727,0.9725034835113795,0.4952654231295866,0.48120516412398395,0.6266979514266707,0.56940872715409,0.37212682964602634
0.645,0.6375,0.688,0.60925,0.723,0.56875,0.8895000000000001,0.8454999999999999,0.7635,0.72075,0.7390000000000001,0.65375,0.4617278216442174,0.5126335346028797,0.9734788666976313,0.4868005737136392,0.48909612571491917,0.626673572489873,0.5818718952692193,0.3857997969546284
0.645,0.6375,0.6877500000000001,0.609,0.72275,0.56875,0.8897499999999999,0.8452500000000001,0.76425,0.721,0.7395,0.65375,0.46191360891778915,0.5125406409660939,0.9737111007895959,0.47919655631570257,0.49727403135860665,0.6016595970122598,0.5444673664070232,0.3894358762615204
0.645,0.6375,0.6875,0.60875,0.7225,0.56875,0.89,0.845,0.765,0.72125,0.74,0.65375,0.4617742684626103,0.5115652577798421,0.9718996748722712,0.473457675260656,0.5038737447121564,0.6016595970122598,0.5444673664070232,0.3894358762615204
0.645,0.63725,0.6877500000000001,0.60875,0.7225,0.56825,0.8902500000000001,0.8454999999999999,0.7652500000000001,0.72125,0.74,0.65375,0.46033441709242917,0.5109150023223409,0.9725499303297724,0.46901004244299493,0.5080344336173114,0.5987740680905247,0.5320042203867713,0.3962756949644709
0.645,0.637,0.688,0.60875,0.7225,0.56775,0.8905,0.846,0.7655,0.72125,0.74,0.65375,0.4591267998142127,0.5098002786809104,0.9739433348815606,0.4658536580029656,0.5107604021184584,0.5987740680905247,0.5320042203867713,0.3962756949644709
0.645,0.6367499999999999,0.68825,0.60875,0.7225,0.56725,0.89075,0.8465,0.76575,0.72125,0.74,0.65375,0.4583836507199257,0.5093822573153739,0.9738039944263819,0.474318507418913,0.5002869443332447,0.5890825331762927,0.4786215597971682,0.4249781555754711
0.645,0.6365,0.6884999999999999,0.60875,0.7225,0.56675,0.8909999999999999,0.847,0.7659999999999999,0.72125,0.74,0.65375,0.45977705527171386,0.5094287041337668,0.9741291221551324,0.4817790527904735,0.49296987084781424,0.5890825331762927,0.4786215597971682,0.4249781555754711
0.6447499999999999,0.636,0.6890000000000001,0.60875,0.7225,0.56575,0.8909999999999999,0.8475,0.768,0.72075,0.7397499999999999,0.65275,0.46010218300046446,0.5098002786809104,0.9745471435206688,0.4863701576345107,0.4899569582939148,0.5909940197696926,0.4643811681027123,0.4277168185459928
0.6445000000000001,0.63575,0.6892499999999999,0.60875,0.7225,0.56525,0.89075,0.8475,0.7697499999999999,0.7202500000000001,0.7395,0.6517499999999999,0.46084533209475154,0.5108685555039479,0.9727821644217371,0.4868005738538854,0.48909612613565784,0.589045958839481,0.49465422168263584,0.4400077497652523
0.64425,0.6355,0.6895,0.60875,0.7225,0.56475,0.8905,0.8475,0.7715000000000001,0.7197499999999999,0.73925,0.65075,0.46126335346028796,0.5117974918718068,0.9712029725963771,0.4866571014067706,0.4880918219510247,0.5832749128592403,0.4857605473378446,0.4459251320607202
0.644,0.63525,0.68975,0.60875,0.7225,0.5642499999999999,0.8902500000000001,0.8475,0.77325,0.71925,0.7390000000000001,0.6497499999999999,0.4608917789131445,0.5122619600557362,0.9699953553181606,0.47977044386022233,0.4916786224701825,0.5745878731836891,0.5035723108672397,0.4591140071132408
0.64375,0.635,0.69,0.60875,0.7225,0.56375,0.89,0.8475,0.775,0.71875,0.73875,0.64875,0.46042731072921506,0.5111007895959127,0.9703204830469113,0.4738880909190458,0.4922525105756872,0.5591862218363667,0.5320812431302884,0.48368380342069106
0.64375,0.635,0.69,0.60875,0.7225,0.56375,0.89,0.8475,0.775,0.71875,0.73875,0.64875,0.4610775661867162,0.5102183000464469,0.9715745471435207,0.4714490666108973,0.4908177903119256,0.5696933537845921,0.528547454682246,0.5009966088118454
0.64375,0.635,0.69,0.60875,0.7225,0.56375,0.89,0.8475,0.775,0.71875,0.73875,0.64875,0.4617278216442174,0.5096144914073386,0.9725499303297724,0.4715925384970272,0.4898134861272924,0.5878891160064649,0.5161162578550882,0.5246861598156004
0.64375,0.635,0.69,0.60875,0.7225,0.56375,0.89,0.8475,0.775,0.71875,0.73875,0.64875,0.4617742684626103,0.5092429168601951,0.97440780306549,0.47044476228601795,0.4911047343646779,0.5437784846522671,0.5072432643157849,0.5528469012970532
0.64375,0.635,0.69,0.60875,0.7225,0.56375,0.89,0.8475,0.775,0.71875,0.73875,0.64875,0.46219228982814675,0.5085462145843009,0.9746864839758477,0.46987087474149813,0.4928263986811918,0.5389753714371252,0.4912218929128008,0.552836982626005
0.644,0.635,0.69,0.60875,0.72225,0.563,0.89,0.84725,0.77575,0.71875,0.7390000000000001,0.64825,0.4609846725499303,0.5082210868555503,0.9738968880631677,0.471879482830272,0.4916786224701825,0.5389753714371252,0.4912218929128008,0.552836982626005
0.64425,0.635,0.69,0.60875,0.722,0.56225,0.89,0.847,0.7765000000000001,0.71875,0.73925,0.64775,0.46075243845796565,0.507803065490014,0.9736646539712029,0.47503586713005513,0.49096126247854793,0.5178940921567468,0.4680746804213467,0.5550811475274594
0.6445000000000001,0.635,0.69,0.60875,0.72175,0.5615,0.89,0.84675,0.77725,0.71875,0.7395,0.64725,0.4605666511843939,0.5079888527635857,0.9736646539712029,0.47847919576308306,0.49038737423279705,0.5178940921567468,0.4680746804213467,0.5550811475274594
0.6447499999999999,0.635,0.69,0.60875,0.7215,0.5607500000000001,0.89,0.8465,0.778,0.71875,0.7397499999999999,0.6467499999999999,0.46103111936832325,0.5075708313980493,0.9727357176033442,0.4832137729139889,0.48737446167889764,0.5197872975133555,0.48054160466567813,0.5646471105178856
0.645,0.635,0.69,0.60875,0.72125,0.56,0.89,0.84625,0.77875,0.71875,0.74,0.64625,0.4609382257315374,0.507803065490014,0.9732466326056666,0.48909612571491917,0.4836441889931174,0.5284316888785473,0.4734364443826967,0.5673726235385901
0.645,0.63475,0.69,0.6085,0.72125,0.55975,0.8897499999999999,0.84625,0.7785,0.7184999999999999,0.7402500000000001,0.64625,0.46052020436600094,0.508453320947515,0.9735253135160242,0.4938307027255788,0.48077474846559415,0.5226667287350839,0.4609695201383652,0.5746705286126479
0.645,0.6345000000000001,0.69,0.6082500000000001,0.72125,0.5595,0.8895000000000001,0.84625,0.77825,0.71825,0.7404999999999999,0.64625,0.45935903390617744,0.5090106827682304,0.972921504876916,0.49655667136697207,0.47647058739381676,0.5245660317916995,0.44851952057032013,0.5778483803060955
0.645,0.63425,0.69,0.608,0.72125,0.55925,0.88925,0.84625,0.778,0.718,0.74075,0.64625,0.4594054807245704,0.5078959591267999,0.9722248026010218,0.4985652797362384,0.4705882344526403,0.5245660317916995,0.44851952057032013,0.5778483803060955
0.645,0.634,0.69,0.60775,0.72125,0.5589999999999999,0.889,0.84625,0.77775,0.7177500000000001,0.741,0.64625,0.45977705527171386,0.5080817464003716,0.9724105898745936,0.5034433284927817,0.4645624096253339,0.531292827000255,0.44139745770593003,0.5773825861388875
0.645,0.63375,0.69,0.6075,0.72125,0.55875,0.88875,0.84625,0.7775,0.7175,0.74125,0.64625,0.46033441709242917,0.5079424059451928,0.9727357176033442,0.506599712932811,0.4588235288507798,0.531292827000255,0.44139745770593003,0.5773825861388875
0.645,0.63375,0.69,0.6075,0.72125,0.55875,0.88875,0.84625,0.7775,0.7175,0.74125,0.64625,0.46209939619136087,0.5078959591267999,0.9727357176033442,0.5084648494159474,0.4571018645342658,0.5351158239135139,0.43071714736392974,0.5755343609802928
0.645,0.63375,0.69,0.6075,0.72125,0.55875,0.88875,0.84625,0.7775,0.7175,0.74125,0.64625,0.4631212261960056,0.5078495123084069,0.9725034835113795,0.5100430417060852,0.45753228075364055,0.5351158239135139,0.43071714736392974,0.5755343609802928
0.6452500000000001,0.634,0.69,0.6075,0.7215,0.5589999999999999,0.8897499999999999,0.84625,0.7785,0.718,0.7415,0.6455,0.46335346028797025,0.507756618671621,0.9739433348815606,0.5123385941281038,0.46169296937830306,0.5120499093661123,0.5677855932515529,0.5772605844672469
0.6455,0.63425,0.69,0.6075,0.72175,0.55925,0.89075,0.84625,0.7795000000000001,0.7184999999999999,0.74175,0.6447499999999999,0.46298188574082677,0.5077101718532281,0.9732001857872736,0.5117647060225992,0.46771879420560947,0.5120499093661123,0.5677855932515529,0.5772605844672469
0.64575,0.6345000000000001,0.69,0.6075,0.722,0.5595,0.8917499999999999,0.84625,0.7805,0.7190000000000001,0.742,0.644,0.46261031119368323,0.5077101718532281,0.9724570366929866,0.510616929951836,0.47460545119117287,0.499576447114114,0.6140649716227754,0.5744874900739785
0.6459999999999999,0.63475,0.69,0.6075,0.72225,0.55975,0.89275,0.84625,0.7815000000000001,0.7195,0.74225,0.64325,0.4615420343706456,0.5074314909428704,0.9725034835113795,0.5094691536005805,0.48020086036008947,0.49641668777728365,0.5785335360140651,0.6441301114491973
0.64625,0.635,0.69,0.6075,0.7225,0.56,0.89375,0.84625,0.7825,0.72,0.7425,0.6425,0.4608917789131445,0.5077101718532281,0.9725499303297724,0.5073170732049381,0.4829268290014828,0.49641668777728365,0.5785335360140651,0.6441301114491973
0.64625,0.635,0.69,0.6075,0.7225,0.56,0.89375,0.84625,0.7825,0.72,0.7425,0.6425,0.4600557361820715,0.5087784486762656,0.9715281003251277,0.5047345767301672,0.4832137733347276,0.5012380822292165,0.5553901017466907,0.6478020576621782
0.64625,0.635,0.69,0.6075,0.7225,0.56,0.89375,0.84625,0.7825,0.72,0.7425,0.6425,0.45959126799814215,0.5092429168601951,0.9718532280538783,0.5005738881055046,0.4814921090182136,0.520395691379411,0.523356749263727,0.6450598290432732
0.6465000000000001,0.63525,0.68975,0.6075,0.7225,0.56,0.89325,0.84625,0.7822499999999999,0.72,0.74275,0.642,0.4600092893636786,0.5089177891314445,0.9723641430562007,0.4955523671823389,0.48436154954573685,0.5213697099812872,0.516240298498262,0.6510050793165655
0.6467499999999999,0.6355,0.6895,0.6075,0.7225,0.56,0.89275,0.84625,0.782,0.72,0.743,0.6415000000000001,0.4607059916395727,0.5088713423130515,0.9716674407803065,0.49067431814530316,0.48751793398576626,0.5117756789510172,0.5286997104841896,0.6491676923454573
0.647,0.63575,0.6892499999999999,0.6075,0.7225,0.56,0.89225,0.84625,0.78175,0.72,0.7432500000000001,0.6409999999999999,0.46144914073385973,0.5080817464003716,0.972131908964236,0.4873744613984052,0.4925394547686857,0.45618999474672467,0.7209280184458644,0.6367249832639361
0.64725,0.636,0.6890000000000001,0.6075,0.7225,0.56,0.8917499999999999,0.84625,0.7815000000000001,0.72,0.7434999999999999,0.6405,0.46196005573618204,0.5072921504876916,0.9724570366929866,0.48493543709025666,0.49741750352522907,0.4438505988522705,0.6247753309983909,0.6089601008154365
0.6475,0.63625,0.68875,0.6075,0.7225,0.56,0.89125,0.84625,0.78125,0.72,0.74375,0.64,0.4627032048304691,0.5068276823037622,0.9730143985137019,0.483500716826495,0.5041606887649087,0.43617415211540717,0.6390138446282457,0.6126020373555657
0.64775,0.63625,0.68875,0.6072500000000001,0.72275,0.55975,0.8909999999999999,0.84625,0.7809999999999999,0.7204999999999999,0.7440000000000001,0.63975,0.4626567580120762,0.5064561077566186,0.9730608453320948,0.48378766087924735,0.5057388810550465,0.43617415211540717,0.6390138446282457,0.6126020373555657
0.648,0.63625,0.68875,0.607,0.723,0.5595,0.89075,0.84625,0.78075,0.721,0.74425,0.6395000000000001,0.46242452392011146,0.5058987459359033,0.9735717603344172,0.4860832134415122,0.5074605452313142,0.432363350602162,0.6318823693459732,0.6062326594044584
0.64825,0.63625,0.68875,0.60675,0.7232500000000001,0.55925,0.8905,0.84625,0.7805,0.7215,0.7445,0.63925,0.4617278216442174,0.5065025545750116,0.972921504876916,0.49024390234666715,0.5088952654950759,0.4227693077086625,0.6318823693459732,0.6025867421364252
0.6485,0.63625,0.68875,0.6065,0.7234999999999999,0.5589999999999999,0.8902500000000001,0.84625,0.7802500000000001,0.722,0.7447499999999999,0.639,0.4606130980027868,0.507013469577334,0.9729679516953089,0.4934002867866965,0.5088952654950759,0.41892804142184226,0.62298493887198,0.6003081141047608
0.64875,0.63625,0.68875,0.60625,0.72375,0.55875,0.89,0.84625,0.78,0.7225,0.745,0.63875,0.4590803529958198,0.5072921504876916,0.9726892707849513,0.4967001433933482,0.508034433336819,0.41892804142184226,0.62298493887198,0.6003081141047608
0.64875,0.63625,0.68875,0.60625,0.72375,0.5585,0.8897499999999999,0.84625,0.7805,0.7225,0.7445,0.63925,0.4578262888992104,0.5080817464003716,0.9722712494194148,0.5,0.5061692969939288,0.4103689704038283,0.6033733928931695,0.5862136306603285
0.64875,0.63625,0.68875,0.60625,0.72375,0.55825,0.8895000000000001,0.84625,0.7809999999999999,0.7225,0.7440000000000001,0.63975,0.45787273571760334,0.508453320947515,0.9719461216906642,0.5010043041846332,0.5028694405275232,0.41134300086893405,0.606925984082099,0.5807582549314416
0.64875,0.63625,0.68875,0.60625,0.72375,0.5579999999999999,0.88925,0.84625,0.7815000000000001,0.7225,0.7434999999999999,0.6402500000000001,0.45852299117510453,0.5080352995819787,0.9721783557826289,0.5002869440527523,0.5,0.41134300086893405,0.606925984082099,0.5807582549314416
0.64875,0.63625,0.68875,0.60625,0.72375,0.55775,0.889,0.84625,0.782,0.7225,0.743,0.64075,0.45977705527171386,0.507013469577334,0.972085462145843,0.5002869440527523,0.4977044475779814,0.45079678076554797,0.539239033411852,0.5366629940200071
0.64875,0.63625,0.68875,0.60625,0.72375,0.5575,0.88875,0.84625,0.7825,0.7225,0.7425,0.64125,0.4605666511843939,0.5068741291221551,0.9718067812354854,0.5005738881055046,0.4964131993405959,0.4354499731285986,0.6157651282688295,0.5243746484002622
0.64875,0.63625,0.68875,0.60625,0.72375,0.5575,0.88875,0.84625,0.7825,0.7225,0.7425,0.64125,0.4605666511843939,0.5065025545750116,0.9720390153274501,0.5011477762110093,0.4967001433933482,0.4354499731285986,0.6157651282688295,0.5243746484002622
0.64875,0.63625,0.68875,0.60625,0.72375,0.5575,0.88875,0.84625,0.7825,0.7225,0.7425,0.64125,0.4608917789131445,0.5068741291221551,0.9724105898745936,0.501721664316514,0.4984218077098622,0.43069561778705256,0.6282132497722737,0.5129990914716389
0.64875,0.636,0.68875,0.60625,0.72375,0.5575,0.88925,0.84625,0.7825,0.7225,0.742,0.6415000000000001,0.4599163957268927,0.5072457036692987,0.9730608453320948,0.5021520803956424,0.4994261118944954,0.43069561778705256,0.6282132497722737,0.5129990914716389
0.64875,0.63575,0.68875,0.60625,0.72375,0.5575,0.8897499999999999,0.84625,0.7825,0.7225,0.7415,0.6417499999999999,0.4586623316302833,0.5081281932187646,0.972921504876916,0.5015781922901378,0.5015781922901378,0.4307443637974188,0.6104014862428786,0.501172253746551
0.64875,0.6355,0.68875,0.60625,0.72375,0.5575,0.8902500000000001,0.84625,0.7825,0.7225,0.741,0.642,0.4587552252670692,0.5079424059451928,0.9732001857872736,0.5001434720263762,0.5028694405275232,0.4288572561408169,0.62641722345206,0.4979935545990815
0.64875,0.63525,0.68875,0.60625,0.72375,0.5575,0.89075,0.84625,0.7825,0.7225,0.7404999999999999,0.64225,0.4595448211797492,0.5083139804923362,0.972921504876916,0.4981348636571099,0.5028694405275232,0.4288572561408169,0.62641722345206,0.4979935545990815
0.64875,0.635,0.68875,0.60625,0.72375,0.5575,0.89125,0.84625,0.7825,0.7225,0.74,0.6425,0.45843009753831865,0.5077101718532281,0.9728286112401301,0.49655667136697207,0.5018651363428901,0.43366645519273606,0.6139465430785267,0.4907040635328094
0.6485,0.63475,0.68875,0.6065,0.72375,0.5575,0.8909999999999999,0.84625,0.7829999999999999,0.72225,0.7404999999999999,0.643,0.458894565722248,0.5071063632141198,0.972131908964236,0.4968436154197244,0.5,0.43464048565784175,0.6175066465258601,0.4857044595302021
0.64825,0.6345000000000001,0.68875,0.60675,0.72375,0.5575,0.89075,0.84625,0.7835,0.722,0.741,0.6435,0.45977705527171386,0.5065025545750116,0.9725034835113795,0.4975609755516052,0.4977044475779814,0.43560841842294074,0.6157237666578532,0.4893692254439733
0.648,0.63425,0.68875,0.607,0.72375,0.5575,0.8905,0.84625,0.784,0.72175,0.7415,0.644,0.4598235020901068,0.5065954482117975,0.9726892707849513,0.49928263986811916,0.4968436154197244,0.43560841842294074,0.6157237666578532,0.4893692254439733
0.64775,0.634,0.68875,0.6072500000000001,0.72375,0.5575,0.8902500000000001,0.84625,0.7845,0.7215,0.742,0.6445000000000001,0.45959126799814215,0.5060380863910822,0.9726892707849513,0.5001434720263762,0.4956958392087151,0.4365824488880464,0.6264021768403746,0.47707209109187576
0.6475,0.63375,0.68875,0.6075,0.72375,0.5575,0.89,0.84625,0.785,0.72125,0.7425,0.645,0.46010218300046446,0.5058987459359033,0.9722248026010218,0.5010043041846332,0.4949784790768343,0.4404237270380963,0.6174991342674562,0.47616428047250675
0.6475,0.63375,0.68875,0.6075,0.72375,0.5575,0.89,0.84625,0.785,0.72125,0.7425,0.645,0.46103111936832325,0.5059451927542963,0.9723641430562007,0.5014347202637617,0.49598278326146744,0.4404237270380963,0.6174991342674562,0.47616428047250675
0.6475,0.63375,0.68875,0.6075,0.72375,0.5575,0.89,0.84625,0.785,0.72125,0.7425,0.645,0.4611704598235021,0.5059451927542963,0.9719925685090571,0.5015781922901378,0.49827833568348606,0.4462130542551281,0.6085810229879748,0.4707012373024725
0.6475,0.63375,0.68875,0.6075,0.72375,0.5575,0.89,0.84625,0.785,0.72125,0.7425,0.645,0.461216906641895,0.5060845332094751,0.9717603344170924,0.5010043041846332,0.49870875176261453,0.4615903266656526,0.5961235111615258,0.46070300069863646
0.64725,0.63375,0.6884999999999999,0.60775,0.7234999999999999,0.55725,0.89,0.846,0.7857500000000001,0.72125,0.74275,0.6452500000000001,0.460473757547608,0.5057594054807246,0.9719925685090571,0.5015781922901378,0.4985652797362384,0.4615903266656526,0.5961235111615258,0.46070300069863646
0.647,0.63375,0.68825,0.608,0.7232500000000001,0.557,0.89,0.84575,0.7865000000000001,0.72125,0.743,0.6455,0.4600557361820715,0.5063167673014398,0.9722712494194148,0.5025824964747709,0.49784791960435754,0.46256435713075833,0.5836622211109973,0.4606958809318568
0.6467499999999999,0.63375,0.688,0.6082500000000001,0.723,0.55675,0.89,0.8454999999999999,0.7872499999999999,0.72125,0.7432500000000001,0.64575,0.45926614026939155,0.5058522991175104,0.9723176962378077,0.5034433286330279,0.4955523670420927,0.47791725060448487,0.5800984057242172,0.4566372074353794
0.6465000000000001,0.63375,0.6877500000000001,0.6085,0.72275,0.5565,0.89,0.8452500000000001,0.7879999999999999,0.72125,0.7434999999999999,0.6459999999999999,0.45880167208546213,0.5062238736646539,0.9719461216906642,0.5053084649759181,0.4935437586728264,0.47791725060448487,0.5800984057242172,0.4566372074353794
0.64625,0.63375,0.6875,0.60875,0.7225,0.55625,0.89,0.845,0.78875,0.72125,0.74375,0.64625,0.4584765443567116,0.5058058522991176,0.9718067812354854,0.5077474894243128,0.49124820625080784,0.47026517094118997,0.5747554445037546,0.44796623371912553
0.64625,0.63375,0.6875,0.60875,0.7225,0.55625,0.89,0.845,0.78875,0.72125,0.74375,0.64625,0.45903390617742684,0.5073385973060845,0.9722712494194148,0.5106169300920823,0.48952654179404764,0.47026517094118997,0.5747554445037546,0.44796623371912553
0.64625,0.63375,0.6875,0.60875,0.7225,0.55625,0.89,0.845,0.78875,0.72125,0.74375,0.64625,0.45986994890849975,0.5067347886669763,0.9718532280538783,0.5130559546807233,0.48837876544279213,0.4769432201393791,0.5480462725952439,0.44572508967418334
0.64625,0.63375,0.6875,0.60875,0.7225,0.55625,0.89,0.845,0.78875,0.72125,0.74375,0.64625,0.4599163957268927,0.5072457036692987,0.9717603344170924,0.515638451015248,0.4880918216705322,0.47598747091106447,0.5729782209244282,0.45073898509528987
0.6465000000000001,0.63375,0.6872499999999999,0.60875,0.7225,0.55625,0.89,0.8447499999999999,0.7879999999999999,0.7204999999999999,0.7434999999999999,0.6459999999999999,0.46019507663725034,0.5075708313980493,0.9724570366929866,0.5177905315511367,0.48536585330963133,0.47598747091106447,0.5729782209244282,0.45073898509528987
0.6467499999999999,0.63375,0.687,0.60875,0.7225,0.55625,0.89,0.8445,0.7872499999999999,0.7197499999999999,0.7432500000000001,0.64575,0.4601486298188574,0.5072457036692987,0.9723176962378077,0.5202295561397777,0.4839311330458697,0.4836456364111367,0.5765345682425597,0.45711729302108706
0.647,0.63375,0.68675,0.60875,0.7225,0.55625,0.89,0.84425,0.7865000000000001,0.7190000000000001,0.743,0.6455,0.4609382257315374,0.5063632141198328,0.9717138875986995,0.5222381642285515,0.48378766115973976,0.4883999917526827,0.5676427719623693,0.45803706311914794
0.64725,0.63375,0.6865000000000001,0.60875,0.7225,0.55625,0.89,0.8440000000000001,0.7857500000000001,0.71825,0.74275,0.6452500000000001,0.46084533209475154,0.5067812354853692,0.9724570366929866,0.5243902447644402,0.48407460549298453,0.49033586914611005,0.5658636703184419,0.46579371177355405
0.6475,0.63375,0.68625,0.60875,0.7225,0.55625,0.89,0.84375,0.785,0.7175,0.7425,0.645,0.46112401300510913,0.5069205759405481,0.9728286112401301,0.5256814934225643,0.4846484935984892,0.4951024198876699,0.5605356894250315,0.47173187975252356
0.6475,0.63375,0.68625,0.60875,0.7225,0.55625,0.89,0.84375,0.785,0.7175,0.7425,0.645,0.46065954482117977,0.506130980027868,0.9723641430562007,0.5271162134058335,0.48637015791500315,0.5085133501311918,0.5463103443422608,0.4831213360800989
0.6475,0.63375,0.68625,0.60875,0.7225,0.55625,0.89,0.84375,0.785,0.7175,0.7425,0.645,0.46065954482117977,0.506967022758941,0.9725499303297724,0.5276901015113382,0.4859397416956284,0.5446611089334175,0.512606906341736,0.5852514792136997
0.6475,0.63375,0.68625,0.60875,0.7225,0.55625,0.89,0.84375,0.785,0.7175,0.7425,0.645,0.4600092893636786,0.5074779377612634,0.9726428239665583,0.5279770458445829,0.48407460549298453,0.5867505425470103,0.4699534078686356,0.6317554350541272
0.64725,0.6335000000000001,0.6865000000000001,0.60925,0.722,0.5565,0.88925,0.84325,0.7835,0.71675,0.742,0.644,0.4599163957268927,0.5080817464003716,0.9731072921504877,0.5269727415197036,0.4830703011681052,0.596277546330123,0.47175131225345024,0.648637606972478
0.647,0.63325,0.68675,0.60975,0.7215,0.55675,0.8885,0.8427500000000001,0.782,0.716,0.7415,0.643,0.45977705527171386,0.5081281932187646,0.972875058058523,0.5259684371948242,0.4820659968432258,0.619221566193535,0.4949511547434864,0.6919294785889819
0.6467499999999999,0.633,0.687,0.61025,0.721,0.557,0.88775,0.8422499999999999,0.7805,0.71525,0.741,0.642,0.459684161634928,0.5088713423130515,0.9732001857872736,0.523098996667301,0.4839311330458697,0.619221566193535,0.4949511547434864,0.6919294785889819
0.6465000000000001,0.63275,0.6872499999999999,0.61075,0.7204999999999999,0.55725,0.887,0.84175,0.779,0.7145,0.7404999999999999,0.6409999999999999,0.4601486298188574,0.509335810496981,0.9737111007895959,0.5183644196566414,0.48766140587189616,0.6201407529482676,0.48072580966071576,0.7042328881363342
0.64625,0.6325,0.6875,0.61125,0.72,0.5575,0.88625,0.84125,0.7775,0.71375,0.74,0.64,0.45996284254528563,0.5095215977705527,0.9737575476079888,0.5126255384613486,0.492969870707568,0.6594665523241147,0.4540861703321959,0.7439326673451603
0.6459999999999999,0.63225,0.6875,0.61125,0.7197499999999999,0.557,0.8865000000000001,0.84175,0.77725,0.71325,0.7397499999999999,0.6395000000000001,0.4591267998142127,0.5094751509521598,0.9731537389688807,0.5081779055034413,0.4967001433933482,0.6594665523241147,0.4540861703321959,0.7439326673451603
0.64575,0.632,0.6875,0.61125,0.7195,0.5565,0.8867499999999999,0.8422499999999999,0.777,0.7127500000000001,0.7395,0.639,0.4594054807245704,0.5100325127728751,0.9735253135160242,0.5012912482373855,0.5004304160791285,0.6604223015524293,0.45408992646139773,0.7439478581026214
0.6455,0.6317499999999999,0.6875,0.61125,0.71925,0.556,0.887,0.8427500000000001,0.7767499999999999,0.7122499999999999,0.73925,0.6385000000000001,0.4594519275429633,0.5104505341384116,0.9732466326056666,0.4964131994808421,0.501721664316514,0.6604223015524293,0.45408992646139773,0.7439478581026214
0.6452500000000001,0.6315,0.6875,0.61125,0.7190000000000001,0.5555,0.88725,0.84325,0.7765000000000001,0.71175,0.7390000000000001,0.638,0.4586158848118904,0.5096609382257316,0.9728286112401301,0.4931133430144366,0.5020086083692663,0.6844622347017071,0.42205281784923204,0.7366735895012738
0.645,0.631,0.6875,0.6114999999999999,0.7190000000000001,0.555,0.8875,0.84375,0.7759999999999999,0.71125,0.7384999999999999,0.63775,0.45843009753831865,0.5091035764050162,0.9731537389688807,0.49096126261879414,0.5008608321582569,0.6902576596187457,0.43629130938420946,0.7325868866071584
0.645,0.63075,0.6875,0.61175,0.71925,0.555,0.8875,0.84375,0.77575,0.71125,0.7382500000000001,0.638,0.4586158848118904,0.5086391082210868,0.9732466326056666,0.48866571019677557,0.5,0.6902576596187457,0.43629130938420946,0.7325868866071584
0.645,0.6305,0.6875,0.612,0.7195,0.555,0.8875,0.84375,0.7755,0.71125,0.738,0.63825,0.45745471435206686,0.5084068741291221,0.972875058058523,0.48852223803015316,0.4981348636571099,0.6979645711291842,0.43273498416095557,0.726689998863028
0.645,0.63025,0.6875,0.61225,0.7197499999999999,0.555,0.8875,0.84375,0.7752500000000001,0.71125,0.73775,0.6385000000000001,0.45754760798885274,0.5082210868555503,0.972875058058523,0.4886657100565293,0.4952654231295866,0.6970758610112564,0.40423729819063514,0.7175959812877077
0.645,0.63,0.6875,0.6125,0.72,0.555,0.8875,0.84375,0.775,0.71125,0.7375,0.63875,0.4579656293543892,0.5079888527635857,0.9730143985137019,0.4893830700481639,0.4934002867866965,0.7222604771832251,0.365010428008934,0.6497074600247579
0.645,0.63,0.6875,0.6125,0.72,0.555,0.8875,0.84375,0.775,0.71125,0.7375,0.63875,0.4582443102647469,0.5078495123084069,0.9723176962378077,0.4902439022064209,0.49182209449655867,0.7222604771832251,0.365010428008934,0.6497074600247579
0.645,0.63,0.6875,0.6125,0.72,0.555,0.8875,0.84375,0.775,0.71125,0.7375,0.63875,0.45810496980956805,0.5080352995819787,0.9723641430562007,0.4925394546284395,0.4898134861272924,0.7232405934851082,0.36678389545905854,0.6396728319004384
0.645,0.63,0.6875,0.6125,0.72,0.555,0.8875,0.84375,0.775,0.71125,0.7375,0.63875,0.45833720390153276,0.5077101718532281,0.9725963771481654,0.49483500705045813,0.488378766003777,0.745411700214575,0.3845543194723549,0.5986673249366667
0.6452500000000001,0.63,0.6877500000000001,0.61275,0.72,0.5555,0.887,0.8440000000000001,0.77425,0.71125,0.738,0.63925,0.4588481189038551,0.5077101718532281,0.9729679516953089,0.49741750352522907,0.4868005737136392,0.745411700214575,0.3845543194723549,0.5986673249366667
0.6455,0.63,0.688,0.613,0.72,0.556,0.8865000000000001,0.84425,0.7735,0.71125,0.7384999999999999,0.63975,0.4591267998142127,0.5084068741291221,0.972921504876916,0.5,0.4847919653443729,0.7348680057927677,0.3898916464990147,0.5922516454415179
0.64575,0.63,0.68825,0.6132500000000001,0.72,0.5565,0.8859999999999999,0.8445,0.77275,0.71125,0.7390000000000001,0.6402500000000001,0.4590803529958198,0.5088713423130515,0.9733395262424525,0.5011477762110093,0.48321377305423513,0.7369135706069412,0.4539264022718484,0.5397825587482513
0.6459999999999999,0.63025,0.6884999999999999,0.6135,0.7202500000000001,0.557,0.88575,0.845,0.772,0.71175,0.73925,0.64075,0.4597306084533209,0.5089642359498374,0.9727357176033442,0.49985652797362384,0.4820659968432258,0.7369135706069412,0.4539264022718484,0.5397825587482513
0.64625,0.6305,0.68875,0.61375,0.7204999999999999,0.5575,0.8855,0.8454999999999999,0.77125,0.7122499999999999,0.7395,0.64125,0.4606130980027868,0.508499767765908,0.9723176962378077,0.49899569581536685,0.4812051644044764,0.7359761144786471,0.44857778476270516,0.5365951314008591
0.64625,0.63075,0.68875,0.61375,0.72075,0.5575,0.88575,0.84575,0.77125,0.7127500000000001,0.73925,0.64125,0.460473757547608,0.5085926614026939,0.9722248026010218,0.49741750352522907,0.48177905250998104,0.7311973683370735,0.48059799079346227,0.5165111398292331
0.6465000000000001,0.63125,0.68875,0.6135,0.72125,0.55775,0.88575,0.84625,0.7715000000000001,0.713,0.7390000000000001,0.64125,0.46042731072921506,0.5087320018578727,0.9718996748722712,0.4955523671823389,0.4824964127821081,0.7312095637370871,0.4894916430433759,0.5114811831366705
0.6467499999999999,0.6317499999999999,0.68875,0.6132500000000001,0.72175,0.5579999999999999,0.88575,0.84675,0.7717499999999999,0.71325,0.73875,0.64125,0.4605666511843939,0.5089177891314445,0.9718532280538783,0.49483500705045813,0.48321377305423513,0.727386578687058,0.4966061936493622,0.5037339285389182
0.647,0.632,0.68875,0.613,0.722,0.55825,0.8855,0.847,0.772,0.713,0.73875,0.64125,0.45959126799814215,0.5090571295866233,0.9719461216906642,0.4945480629977058,0.4829268290014828,0.727386578687058,0.4966061936493622,0.5037339285389182
0.64725,0.63225,0.68875,0.61275,0.72225,0.5585,0.8852500000000001,0.84725,0.77225,0.7127500000000001,0.73875,0.64125,0.458894565722248,0.5099396191360892,0.9723176962378077,0.4941176469185773,0.4820659971237183,0.7331393434305076,0.507278969638081,0.4982544032529136
0.6475,0.6325,0.68875,0.6125,0.7225,0.55875,0.885,0.8475,0.7725,0.7125,0.73875,0.64125,0.4590803529958198,0.5094751509521598,0.9722248026010218,0.4936872308394488,0.48063127685995666,0.7331393434305076,0.507278969638081,0.4982544032529136
0.6475,0.6325,0.68875,0.6125,0.7225,0.55875,0.885,0.8475,0.7725,0.7125,0.73875,0.64125,0.4593125870877845,0.5082675336739433,0.9722248026010218,0.493830702865825,0.4786226682101979,0.7399027011126452,0.5677931055099567,0.4758492005262885
0.6475,0.6325,0.68875,0.6125,0.7225,0.55875,0.885,0.8475,0.7725,0.7125,0.73875,0.64125,0.4592196934509986,0.5073850441244775,0.9725499303297724,0.49354375881307266,0.47632711578817927,0.7408584503409599,0.5766830016306683,0.47220851498971483
0.6475,0.6325,0.68875,0.6125,0.7225,0.55875,0.885,0.8475,0.7725,0.7125,0.73875,0.64125,0.4603808639108221,0.5073385973060845,0.9726892707849513,0.4936872308394488,0.4756097557965447,0.7408584503409599,0.5766830016306683,0.47220851498971483
0.6475,0.6325,0.6890000000000001,0.61275,0.7232500000000001,0.55925,0.88575,0.8482500000000001,0.773,0.7134999999999999,0.7395,0.64125,0.4615420343706456,0.5068741291221551,0.9727357176033442,0.492969870707568,0.47575322768267464,0.7456859306296701,0.5713419184748066,0.4639960629015657
0.6475,0.6325,0.6892499999999999,0.613,0.7240000000000001,0.55975,0.8865000000000001,0.8490000000000001,0.7735,0.7145,0.7402500000000001,0.64125,0.4611704598235021,0.5064096609382257,0.972875058058523,0.49268292665481567,0.4737446190329159,0.7456859306296701,0.5713419184748066,0.4639960629015657
0.6475,0.6325,0.6895,0.6132500000000001,0.7247499999999999,0.56025,0.88725,0.8497499999999999,0.774,0.7155,0.741,0.64125,0.46065954482117977,0.5076172782164422,0.9737111007895959,0.49096126233830173,0.47245337093577666,0.7380338628296047,0.5766830016306683,0.46307448547809144
0.6475,0.6325,0.68975,0.6135,0.7254999999999999,0.5607500000000001,0.888,0.8504999999999999,0.7745000000000001,0.7165,0.74175,0.64125,0.46126335346028796,0.5080817464003716,0.9736646539712029,0.48967001410091626,0.47116212227765253,0.7361467433097731,0.614055559204893,0.44753896988493164
0.6475,0.6325,0.69,0.61375,0.72625,0.56125,0.88875,0.85125,0.775,0.7175,0.7425,0.64125,0.4610775661867162,0.507013469577334,0.9738504412447748,0.48923959802178774,0.470444761725033,0.737157336248461,0.6353766742476401,0.4078299003893319
0.6475,0.6325,0.69,0.61375,0.72625,0.56125,0.88875,0.85125,0.775,0.7175,0.7425,0.64125,0.4603808639108221,0.506967022758941,0.9738504412447748,0.4908177903119256,0.46829268118914436,0.740992516698504,0.6282489550945695,0.40418203455354834
0.6475,0.6325,0.69,0.61375,0.72625,0.56125,0.88875,0.85125,0.775,0.7175,0.7425,0.64125,0.46126335346028796,0.506967022758941,0.9737575476079888,0.49268292665481567,0.4692969855140237,0.740992516698504,0.6282489550945695,0.40418203455354834
0.6475,0.6325,0.69,0.61375,0.72625,0.56125,0.88875,0.85125,0.775,0.7175,0.7425,0.64125,0.4624709707385044,0.506177426846261,0.9732466326056666,0.49713055947247675,0.4707317060582778,0.7333343511984317,0.6246850955180341,0.39913566780743204
0.6475,0.633,0.69,0.61375,0.7265,0.56225,0.8897499999999999,0.8515,0.7752500000000001,0.718,0.74275,0.64125,0.462006502554575,0.506130980027868,0.9734788666976313,0.5004304160791285,0.4721664266025319,0.7333343511984317,0.6246850955180341,0.39913566780743204
0.6475,0.6335000000000001,0.69,0.61375,0.72675,0.56325,0.89075,0.85175,0.7755,0.7184999999999999,0.743,0.64125,0.4620529493729679,0.506177426846261,0.9733395262424525,0.5043041607912849,0.47058823473313277,0.7314167550417955,0.6282358086423628,0.39547642763978086
0.6475,0.634,0.69,0.61375,0.727,0.5642499999999999,0.8917499999999999,0.852,0.77575,0.7190000000000001,0.7432500000000001,0.64125,0.462006502554575,0.5056665118439387,0.9730143985137019,0.507030129292432,0.47030129096087286,0.7170500874331883,0.6513642183929295,0.3799592418429581
0.6475,0.6345000000000001,0.69,0.61375,0.72725,0.56525,0.89275,0.85225,0.7759999999999999,0.7195,0.7434999999999999,0.64125,0.46158848118903856,0.5055736182071529,0.9735717603344172,0.5103299858990837,0.46786226665272435,0.7170500874331883,0.6513642183929295,0.3799592418429581
0.6475,0.635,0.69,0.61375,0.7275,0.56625,0.89375,0.8525,0.77625,0.72,0.74375,0.64125,0.46084533209475154,0.5052949372967952,0.9739897816999535,0.5121951222419738,0.46470588179195627,0.7170805522067636,0.6495719482019178,0.3735486643669185
0.6475,0.635,0.69,0.61375,0.7275,0.56625,0.89375,0.8525,0.77625,0.72,0.74375,0.64125,0.46196005573618204,0.5050627032048305,0.9738504412447748,0.5157819229013779,0.46241032936993764,0.7170805522067636,0.6495719482019178,0.3735486643669185
0.6475,0.635,0.69,0.61375,0.7275,0.56625,0.89375,0.8525,0.77625,0.72,0.74375,0.64125,0.4625638643752903,0.5057594054807246,0.9730143985137019,0.518220947490019,0.4621233850366929,0.7142620623954152,0.6353240442490579,0.3594344848227269
0.6475,0.635,0.69025,0.614,0.72775,0.56725,0.8945000000000001,0.85275,0.77625,0.72,0.7434999999999999,0.6415000000000001,0.4630283325592197,0.506130980027868,0.9724570366929866,0.5205164999120375,0.4624103288089528,0.7152665694973257,0.6691271080529444,0.3375277724230598
0.6475,0.635,0.6905,0.61425,0.728,0.56825,0.8952500000000001,0.853,0.77625,0.72,0.7432500000000001,0.6417499999999999,0.4660473757547608,0.506967022758941,0.9713423130515559,0.5196556677537806,0.46341463313383213,0.7143351873425794,0.6691289861175453,0.335720565192107
0.6475,0.635,0.69075,0.6145,0.7282500000000001,0.5692499999999999,0.8959999999999999,0.8532500000000001,0.77625,0.72,0.743,0.642,0.46683697166744076,0.5073385973060845,0.9701346957733396,0.519081779648276,0.4649928255642162,0.7220725873530522,0.6993776469525341,0.3124598028632854
0.6475,0.635,0.691,0.61475,0.7284999999999999,0.57025,0.8967499999999999,0.8534999999999999,0.77625,0.72,0.74275,0.64225,0.46669763121226193,0.5071528100325128,0.9699024616813748,0.5170731712790096,0.46743184987236475,0.7220725873530522,0.6993776469525341,0.3124598028632854
0.6475,0.635,0.69125,0.615,0.72875,0.57125,0.8975,0.85375,0.77625,0.72,0.7425,0.6425,0.46632605666511845,0.5067812354853692,0.9717138875986995,0.513199426426607,0.4695839304082534,0.7278314379332792,0.6922630300619149,0.31747833333904085
0.6475,0.635,0.69125,0.615,0.72875,0.57125,0.8975,0.85375,0.77625,0.72,0.7425,0.6425,0.46641895030190433,0.5068741291221551,0.9724105898745936,0.5091822096880745,0.4730272590412813,0.7278314379332792,0.6922630300619149,0.31747833333904085
0.6475,0.635,0.69125,0.615,0.72875,0.57125,0.8975,0.85375,0.77625,0.72,0.7425,0.6425,0.4647004180213655,0.507013469577334,0.9727357176033442,0.507030129292432,0.47747489171869617,0.733547640203147,0.6495869948136029,0.34526117085930996
0.64775,0.635,0.691,0.61525,0.72925,0.5715,0.89775,0.8545,0.7765000000000001,0.7197499999999999,0.7432500000000001,0.6425,0.46442173711100787,0.5076172782164422,0.9732466326056666,0.5025824964747709,0.4830703006071203,0.733547640203147,0.6495869948136029,0.34526117085930996
0.648,0.635,0.69075,0.6154999999999999,0.7297499999999999,0.57175,0.898,0.8552500000000001,0.7767499999999999,0.7195,0.7440000000000001,0.6425,0.4645610775661867,0.5083604273107292,0.9730143985137019,0.4968436154197244,0.48880918180241306,0.7393065026466035,0.6513604622637276,0.345715005547826
0.64825,0.635,0.6905,0.61575,0.7302500000000001,0.5720000000000001,0.89825,0.856,0.777,0.71925,0.7447499999999999,0.6425,0.46442173711100787,0.5094287041337668,0.9722248026010218,0.49139167869792266,0.4967001433933482,0.7220725873530522,0.6549167874869813,0.3315780686924093
0.6485,0.635,0.69025,0.616,0.73075,0.57225,0.8985,0.85675,0.77725,0.7190000000000001,0.7454999999999999,0.6425,0.464328843474222,0.5098467254993033,0.9724105898745936,0.48493543737074907,0.5020086085095125,0.72400845288325,0.6513472937166431,0.3288395181392575
0.64875,0.635,0.69,0.61625,0.73125,0.5725,0.89875,0.8575,0.7775,0.71875,0.74625,0.6425,0.46316767301439854,0.5095680445889457,0.9731537389688807,0.4773314199728124,0.5065997133535497,0.7220908685898433,0.6495644359435138,0.32657088084105806
0.64875,0.635,0.69,0.61625,0.73125,0.5725,0.89875,0.8575,0.7775,0.71875,0.74625,0.6425,0.46261031119368323,0.509289363678588,0.9729679516953089,0.4714490671718822,0.5087517937491922,0.7220908685898433,0.6495644359435138,0.32657088084105806
0.64875,0.635,0.69,0.61625,0.73125,0.5725,0.89875,0.8575,0.7775,0.71875,0.74625,0.6425,0.46158848118903856,0.5082210868555503,0.9738968880631677,0.4674318504333496,0.5071736014590544,0.7202403115435938,0.6317526724141188,0.31018989438405364
0.64875,0.635,0.69025,0.61625,0.73125,0.57275,0.89875,0.8575,0.778,0.71925,0.74675,0.64325,0.4618671620993962,0.5072457036692987,0.9736646539712029,0.46527976989746095,0.5037302726857802,0.725031229358722,0.6281737662258982,0.3038189800622202
0.64875,0.635,0.6905,0.61625,0.73125,0.573,0.89875,0.8575,0.7785,0.7197499999999999,0.74725,0.644,0.4617742684626103,0.5067347886669763,0.9732466326056666,0.4655667142307057,0.5011477762110093,0.725031229358722,0.6281737662258982,0.3038189800622202
0.64875,0.635,0.69075,0.61625,0.73125,0.57325,0.89875,0.8575,0.779,0.7202500000000001,0.74775,0.6447499999999999,0.46144914073385973,0.5055736182071529,0.9724105898745936,0.468436154758229,0.4984218077098622,0.7068781273104381,0.6281456173517613,0.2810363922238126
0.64875,0.635,0.691,0.61625,0.73125,0.5735,0.89875,0.8575,0.7795000000000001,0.72075,0.7482500000000001,0.6455,0.46209939619136087,0.5044588945657222,0.9724105898745936,0.4753228117437924,0.49655667136697207,0.6293407349446305,0.6654261276656614,0.22039196558704824
0.64875,0.635,0.69125,0.61625,0.73125,0.57375,0.89875,0.8575,0.78,0.72125,0.74875,0.64625,0.4627032048304691,0.5045982350209011,0.972085462145843,0.4842180773791145,0.49827833568348606,0.6293407349446305,0.6654261276656614,0.22039196558704824
0.64875,0.635,0.69125,0.61625,0.73125,0.57375,0.89875,0.8575,0.78,0.72125,0.74875,0.64625,0.4628889921040409,0.5042731072921505,0.9725963771481654,0.49268292679506187,0.49985652797362384,0.6130503734793802,0.6814437429394438,0.21399268173296943
0.64875,0.635,0.69125,0.61625,0.73125,0.57375,0.89875,0.8575,0.78,0.72125,0.74875,0.64625,0.46274965164886206,0.5044124477473293,0.9726892707849513,0.49956958392087153,0.5018651363428901,0.5823567700687111,0.699219801146543,0.20303665489996933
0.649,0.635,0.6915,0.61575,0.7315,0.57375,0.89875,0.8575,0.77875,0.7215,0.74775,0.6465000000000001,0.46316767301439854,0.5052949372967952,0.972875058058523,0.506169297134175,0.5014347202637617,0.5823567700687111,0.699219801146543,0.20303665489996933
0.64925,0.635,0.69175,0.61525,0.73175,0.57375,0.89875,0.8575,0.7775,0.72175,0.74675,0.6467499999999999,0.4626567580120762,0.5058522991175104,0.9724570366929866,0.5094691536005805,0.5008608321582569,0.5814010208403964,0.7081153314610575,0.20167064837461945
0.6495000000000001,0.635,0.6920000000000001,0.61475,0.732,0.57375,0.89875,0.8575,0.77625,0.722,0.74575,0.647,0.4623780771017185,0.5059451927542963,0.9717603344170924,0.5110473457504722,0.4997130559472477,0.5814010208403964,0.7081153314610575,0.20167064837461945
0.6497499999999999,0.635,0.6922499999999999,0.61425,0.73225,0.57375,0.89875,0.8575,0.775,0.72225,0.7447499999999999,0.64725,0.46209939619136087,0.5062703204830469,0.9718067812354854,0.5133428981724908,0.49928263986811916,0.5803904279017085,0.706343742075534,0.20941790297237178
0.65,0.635,0.6925,0.61375,0.7325,0.57375,0.89875,0.8575,0.77375,0.7225,0.74375,0.6475,0.46228518346493264,0.5065954482117975,0.9723176962378077,0.5149210904626286,0.49928263986811916,0.5803904279017085,0.706343742075534,0.20941790297237178
0.65,0.635,0.6925,0.61375,0.7325,0.57375,0.89875,0.8575,0.77375,0.7225,0.74375,0.6475,0.4624709707385044,0.5065490013934045,0.9726892707849513,0.5133428981724908,0.5022955524220186,0.5909280246235091,0.6992291914695478,0.21947538929529986
0.65,0.635,0.6925,0.61375,0.7325,0.57375,0.89875,0.8575,0.77375,0.7225,0.74375,0.6475,0.4625638643752903,0.5074779377612634,0.9734324198792382,0.5097560976533329,0.5060258251077988,0.631081592706904,0.6494460957787758,0.2628364062419704
0.6497499999999999,0.6345000000000001,0.6922499999999999,0.614,0.73175,0.573,0.89725,0.85675,0.7725,0.7215,0.743,0.647,0.4622387366465397,0.5081746400371574,0.9738504412447748,0.5050215209231658,0.5087517934686997,0.6799100169290658,0.6405956169198065,0.2943206231487381
0.6495000000000001,0.634,0.6920000000000001,0.61425,0.731,0.57225,0.89575,0.856,0.77125,0.7204999999999999,0.74225,0.6465000000000001,0.46209939619136087,0.5083139804923362,0.9736182071528101,0.5002869440527523,0.5110473460309646,0.6799100169290658,0.6405956169198065,0.2943206231487381
0.64925,0.6335000000000001,0.69175,0.6145,0.7302500000000001,0.5715,0.89425,0.8552500000000001,0.77,0.7195,0.7415,0.6459999999999999,0.46135624709707385,0.5081281932187646,0.9734324198792382,0.49540889515596276,0.5114777621100931,0.6827528738139824,0.629930331094614,0.30662398945864056
0.649,0.633,0.6915,0.61475,0.7295,0.57075,0.89275,0.8545,0.76875,0.7184999999999999,0.74075,0.6455,0.4611704598235021,0.5080817464003716,0.9737575476079888,0.49096126233830173,0.5109038740045884,0.6990371494424555,0.6192838701051865,0.3340075550698972
0.64875,0.6325,0.69125,0.615,0.72875,0.57,0.89125,0.85375,0.7675,0.7175,0.74,0.645,0.4609382257315374,0.5072457036692987,0.9737111007895959,0.4889526539690354,0.5098995698199552,0.7124419819859708,0.605052890828613,0.3362790604522852
0.64875,0.6325,0.69125,0.615,0.72875,0.57,0.89125,0.85375,0.7675,0.7175,0.74,0.645,0.4615420343706456,0.5065490013934045,0.9739433348815606,0.4883787658635308,0.5097560979338254,0.7229856645445484,0.5961592164838216,0.34542402903877883
0.64875,0.6325,0.69125,0.615,0.72875,0.57,0.89125,0.85375,0.7675,0.7175,0.74,0.645,0.46168137482582444,0.5063632141198328,0.9737111007895959,0.4870875176261453,0.5100430417060852,0.7344485457210884,0.5783643776307129,0.35365587168204016
0.64875,0.6325,0.69125,0.615,0.72875,0.57,0.89125,0.85375,0.7675,0.7175,0.74,0.645,0.46261031119368323,0.5055271713887599,0.9733859730608454,0.4878048777580261,0.51248206615448,0.7410839228824592,0.4751310110247033,0.38335518035210936
0.64875,0.6325,0.691,0.61425,0.728,0.56775,0.89075,0.8532500000000001,0.76725,0.7172499999999999,0.73925,0.64575,0.46298188574082677,0.5049233627496517,0.9726892707849513,0.48967001410091626,0.5154949787083795,0.7420092073371988,0.4644469666483788,0.3860879860893939
0.64875,0.6325,0.69075,0.6135,0.72725,0.5655,0.8902500000000001,0.85275,0.767,0.7170000000000001,0.7384999999999999,0.6465000000000001,0.4624709707385044,0.5050162563864375,0.972875058058523,0.49124820639105404,0.5173601150512696,0.7420092073371988,0.4644469666483788,0.3860879860893939
0.64875,0.6325,0.6905,0.61275,0.7265,0.56325,0.8897499999999999,0.85225,0.7667499999999999,0.71675,0.73775,0.64725,0.4618671620993962,0.5052949372967952,0.9728286112401301,0.49311334273394414,0.5177905312706442,0.7113156039265297,0.41991096250390997,0.37793202228852507
0.64875,0.6325,0.69025,0.612,0.72575,0.561,0.88925,0.85175,0.7665000000000001,0.7165,0.737,0.648,0.46103111936832325,0.5047840222944728,0.9729679516953089,0.49655667136697207,0.5160688670943765,0.7160943382048737,0.40921564973997987,0.3802264867569052
0.64875,0.6325,0.69,0.61125,0.725,0.55875,0.88875,0.85125,0.76625,0.71625,0.73625,0.64875,0.4600092893636786,0.5049233627496517,0.9727821644217371,0.49985652797362384,0.5114777622503393,0.7160943382048737,0.40921564973997987,0.3802264867569052
0.64875,0.6325,0.69,0.61125,0.725,0.55875,0.88875,0.85125,0.76625,0.71625,0.73625,0.64875,0.4594054807245704,0.5051091500232234,0.9731072921504877,0.5034433286330279,0.5071736014590544,0.7180180201982872,0.3967506035602493,0.3724877874092752
0.64875,0.6325,0.69,0.61125,0.725,0.55875,0.88875,0.85125,0.76625,0.71625,0.73625,0.64875,0.45926614026939155,0.5053413841151881,0.9727821644217371,0.5058823530814227,0.5035868007996503,0.711321689763307,0.3842855794753965,0.37114082842193374
0.6485,0.6325,0.69,0.61125,0.7247499999999999,0.5585,0.88925,0.85125,0.7667499999999999,0.71625,0.737,0.6497499999999999,0.4586158848118904,0.5055271713887599,0.9723641430562007,0.5077474894243128,0.5007173601318808,0.7180363014350782,0.3753825148076004,0.3748098143108327
0.64825,0.6325,0.69,0.61125,0.7245,0.55825,0.8897499999999999,0.85125,0.76725,0.71625,0.73775,0.65075,0.458894565722248,0.5062238736646539,0.9724570366929866,0.5060258251077988,0.49985652797362384,0.7180363014350782,0.3753825148076004,0.3748098143108327
0.648,0.6325,0.69,0.61125,0.72425,0.5579999999999999,0.8902500000000001,0.85125,0.76775,0.71625,0.7384999999999999,0.6517499999999999,0.45903390617742684,0.5068276823037622,0.972921504876916,0.5037302726857802,0.5005738881055046,0.7247265341700517,0.36648508433360716,0.3766486338827868
0.64775,0.6325,0.69,0.61125,0.7240000000000001,0.55775,0.89075,0.85125,0.76825,0.71625,0.73925,0.65275,0.4586623316302833,0.5075708313980493,0.9730608453320948,0.5008608321582569,0.5008608321582569,0.7247265341700517,0.37360716929287485,0.37755119259321956
0.6475,0.6325,0.69,0.61125,0.72375,0.5575,0.89125,0.85125,0.76875,0.71625,0.74,0.65375,0.45903390617742684,0.5072457036692987,0.9732930794240595,0.49784791960435754,0.5010043041846332,0.7247265341700517,0.37360716929287485,0.37755119259321956
0.6475,0.6325,0.69,0.61125,0.72375,0.5575,0.89125,0.85125,0.76875,0.71625,0.74,0.65375,0.4592196934509986,0.506967022758941,0.9737111007895959,0.4956958392087151,0.5012912482373855,0.7343205652003217,0.3878531951811338,0.3803078740504379
0.6475,0.6325,0.69,0.61125,0.72375,0.5575,0.89125,0.85125,0.76875,0.71625,0.74,0.65375,0.4594519275429633,0.5066418950301904,0.9737111007895959,0.49655667136697207,0.5011477762110093,0.7313801925682135,0.4643943366497966,0.3871817523340643
0.6475,0.6325,0.69,0.61125,0.72375,0.5575,0.89125,0.85125,0.76875,0.71625,0.74,0.65375,0.459684161634928,0.5065954482117975,0.9736646539712029,0.49827833568348606,0.5014347202637617,0.7323176605597371,0.4679525399376514,0.3862592640416415
0.6475,0.6325,0.69,0.61125,0.72375,0.5575,0.89125,0.85125,0.76875,0.71625,0.74,0.65375,0.45963771481653504,0.5058522991175104,0.9730143985137019,0.5011477762110093,0.501721664316514,0.731355825494645,0.4750727468323182,0.3880866718092713
0.64725,0.63275,0.69,0.61125,0.72375,0.5575,0.89125,0.851,0.76925,0.71625,0.74075,0.65425,0.45977705527171386,0.5056665118439387,0.9731072921504877,0.5038737447121564,0.501721664316514,0.7361467433097731,0.46083611126706414,0.38856523255423947
0.647,0.633,0.69,0.61125,0.72375,0.5575,0.89125,0.85075,0.7697499999999999,0.71625,0.7415,0.6547499999999999,0.45963771481653504,0.5057594054807246,0.9730143985137019,0.5048780488967896,0.5007173601318808,0.7361467433097731,0.46083611126706414,0.38856523255423947
0.6467499999999999,0.63325,0.69,0.61125,0.72375,0.5575,0.89125,0.8504999999999999,0.7702500000000001,0.71625,0.74225,0.6552500000000001,0.45917324663260567,0.5057129586623317,0.9728286112401301,0.5048780488967896,0.5,0.7438049088098455,0.4643924585851956,0.3876540494137642
0.6465000000000001,0.6335000000000001,0.69,0.61125,0.72375,0.5575,0.89125,0.8502500000000001,0.77075,0.71625,0.743,0.65575,0.4582907570831398,0.5059916395726892,0.9726428239665583,0.504447632817661,0.49827833568348606,0.7419238869900209,0.45727788588433177,0.3899539992733111
0.6465000000000001,0.63375,0.69,0.61125,0.72375,0.55775,0.8909999999999999,0.85,0.77075,0.7165,0.7440000000000001,0.657,0.4583836507199257,0.5062703204830469,0.9729679516953089,0.5027259685011471,0.4964131993405959,0.7467209025051559,0.44659571957260824,0.39177574869997406
0.6467499999999999,0.63375,0.69,0.61125,0.72375,0.5579999999999999,0.89075,0.85,0.7702500000000001,0.71675,0.74425,0.6577500000000001,0.45801207617278217,0.5060845332094751,0.9726892707849513,0.5020086083692663,0.49426111894495345,0.7563088476986485,0.4377077015164975,0.39452285738574466
0.647,0.63375,0.69,0.61125,0.72375,0.55825,0.8905,0.85,0.7697499999999999,0.7170000000000001,0.7445,0.6585,0.4582443102647469,0.5058987459359033,0.9725034835113795,0.5020086083692663,0.49325681476032035,0.7630051662703992,0.4394924373542277,0.39771446435331087
0.64725,0.63375,0.69,0.61125,0.72375,0.5585,0.8902500000000001,0.85,0.76925,0.7172499999999999,0.7447499999999999,0.65925,0.4582907570831398,0.5057129586623317,0.9726428239665583,0.5027259685011471,0.4911047343646779,0.7716434599355841,0.4110135541247944,0.3977301710776765
0.6475,0.63375,0.69,0.61125,0.72375,0.55875,0.89,0.85,0.76875,0.7175,0.745,0.66,0.45880167208546213,0.5051091500232234,0.9724105898745936,0.5034433286330279,0.48880918180241306,0.7678631231959143,0.4020879305869092,0.3804166450623541
0.6475,0.63375,0.69,0.61125,0.72375,0.55875,0.89,0.85,0.76875,0.7175,0.745,0.66,0.4585694379934975,0.5050627032048305,0.9717603344170924,0.5037302726857802,0.4870875176261453,0.7678631231959143,0.4020879305869092,0.3804166450623541
0.6475,0.63375,0.69,0.61125,0.72375,0.55875,0.89,0.85,0.76875,0.7175,0.745,0.66,0.4586158848118904,0.5058058522991176,0.9712029725963771,0.5045911048440372,0.48579626938875986,0.7688493490610336,0.40208041832850533,0.37769090144191586
0.6475,0.63375,0.69,0.61125,0.72375,0.55875,0.89,0.85,0.76875,0.7175,0.745,0.66,0.45852299117510453,0.5062238736646539,0.9705527171388759,0.5055954090286704,0.484218077098622,0.767893599832719,0.40565179016344444,0.3740445316219051
0.6475,0.63375,0.68975,0.61125,0.72375,0.55875,0.8897499999999999,0.85,0.769,0.7175,0.7447499999999999,0.65975,0.4589874593590339,0.5063167673014398,0.9707385044124477,0.5067431852396796,0.4839311330458697,0.7679057833695031,0.4181055458606916,0.3735715859804539
0.6475,0.63375,0.6895,0.61125,0.72375,0.55875,0.8895000000000001,0.85,0.76925,0.7175,0.7445,0.6595,0.45917324663260567,0.5058522991175104,0.97124941941477,0.5073170733451843,0.4856527975026299,0.7679057833695031,0.4181055458606916,0.3735715859804539
0.6475,0.63375,0.6892499999999999,0.61125,0.72375,0.55875,0.88925,0.85,0.7695000000000001,0.7175,0.74425,0.65925,0.4597306084533209,0.506130980027868,0.9715745471435207,0.5086083215825697,0.4870875176261453,0.7640706147826898,0.41989030379329945,0.37038010872523786
0.6475,0.63375,0.6890000000000001,0.61125,0.72375,0.55875,0.889,0.85,0.7697499999999999,0.7175,0.7440000000000001,0.659,0.4600092893636786,0.5066418950301904,0.9722712494194148,0.5086083215825697,0.48880918194265927,0.7659942967761034,0.4323628622314339,0.3813014187683209
0.6475,0.63375,0.68875,0.61125,0.72375,0.55875,0.88875,0.85,0.77,0.7175,0.74375,0.65875,0.45986994890849975,0.5059916395726892,0.9727821644217371,0.5084648495561936,0.4893830700481639,0.7755761442695891,0.42880651491330224,0.3840390901599877
0.6475,0.63375,0.68875,0.61125,0.72375,0.55875,0.88875,0.85,0.77,0.7175,0.74375,0.65875,0.45949837436135627,0.5060380863910822,0.9725963771481654,0.5086083215825697,0.489239598162034,0.7755761442695891,0.42880651491330224,0.3840390901599877
0.6475,0.63375,0.68875,0.61125,0.72375,0.55875,0.88875,0.85,0.77,0.7175,0.74375,0.65875,0.45935903390617744,0.506967022758941,0.9725963771481654,0.5081779055034413,0.48794834992464853,0.77750591209978,0.40923445248086704,0.37765375470730445
0.64775,0.634,0.68875,0.61125,0.72375,0.5585,0.88825,0.85,0.7697499999999999,0.7172499999999999,0.74375,0.65875,0.4594054807245704,0.5065954482117975,0.9726428239665583,0.5080344334770651,0.4863701576345107,0.77750591209978,0.40923445248086704,0.37765375470730445
0.648,0.63425,0.68875,0.61125,0.72375,0.55825,0.88775,0.85,0.7695000000000001,0.7170000000000001,0.74375,0.65875,0.45949837436135627,0.506177426846261,0.9725034835113795,0.5077474894243128,0.48579626952900606,0.7803792574847309,0.4288140271717061,0.373555426704111
0.64825,0.6345000000000001,0.68875,0.61125,0.72375,0.5579999999999999,0.88725,0.85,0.76925,0.71675,0.74375,0.65875,0.45996284254528563,0.5064561077566186,0.9729679516953089,0.5067431852396796,0.48780487789827237,0.7784677590281016,0.4288102710425042,0.37630103937410914
0.6485,0.63475,0.68875,0.61125,0.72375,0.55775,0.8867499999999999,0.85,0.769,0.7165,0.74375,0.65875,0.4595448211797492,0.5066418950301904,0.9723641430562007,0.5038737447121564,0.4899569581536686,0.7832891534800346,0.44483542066956805,0.3744787710980452
0.64875,0.635,0.68875,0.61125,0.72375,0.5575,0.88625,0.85,0.76875,0.71625,0.74375,0.65875,0.4593125870877845,0.5058522991175104,0.9723641430562007,0.5022955524220186,0.4919655665229349,0.7832891534800346,0.44483542066956805,0.3744787710980452
0.64875,0.635,0.68875,0.61125,0.72375,0.5575,0.88625,0.85,0.76875,0.71625,0.74375,0.65875,0.4591267998142127,0.5063632141198328,0.9731072921504877,0.5011477762110093,0.494691535024082,0.7928344384999383,0.4501765038254298,0.3794987370571431
0.64875,0.635,0.68875,0.61125,0.72375,0.5575,0.88625,0.85,0.76875,0.71625,0.74375,0.65875,0.4582443102647469,0.5062703204830469,0.9728286112401301,0.5004304160791285,0.49655667136697207,0.7899489095782031,0.4395037278367111,0.37858577541622124
0.64875,0.635,0.68875,0.61125,0.72375,0.5575,0.88625,0.85,0.76875,0.71625,0.74375,0.65875,0.45764050162563863,0.5058522991175104,0.972921504876916,0.5014347202637617,0.49626972731421976,0.7937962735650302,0.4501821380192327,0.3767517321412526
0.64875,0.635,0.68875,0.61125,0.72375,0.5575,0.88625,0.85,0.76875,0.71625,0.74375,0.65875,0.45833720390153276,0.5057594054807246,0.9736646539712029,0.5027259685011471,0.49655667136697207,0.7784799425648858,0.4466051319904906,0.3662701873204298
0.6485,0.63475,0.68875,0.61125,0.7234999999999999,0.5575,0.88625,0.8497499999999999,0.76875,0.7165,0.745,0.6595,0.4582907570831398,0.5065025545750116,0.9738504412447748,0.5037302726857802,0.4969870874461006,0.7737621496969219,0.4198846475046189,0.348074406901232
0.64825,0.6345000000000001,0.68875,0.61125,0.7232500000000001,0.5575,0.88625,0.8495,0.76875,0.71675,0.74625,0.66025,0.4582443102647469,0.5071063632141198,0.972875058058523,0.5057388810550465,0.49540889515596276,0.7766537644554342,0.42343536062894743,0.34808714465402535
0.648,0.63425,0.68875,0.61125,0.723,0.5575,0.88625,0.84925,0.76875,0.7170000000000001,0.7475,0.6609999999999999,0.45843009753831865,0.507013469577334,0.9729679516953089,0.5083213775298174,0.493830702865825,0.7766537644554342,0.42343536062894743,0.34808714465402535
0.64775,0.634,0.68875,0.61125,0.72275,0.5575,0.88625,0.8490000000000001,0.76875,0.7172499999999999,0.74875,0.66175,0.4584765443567116,0.5074314909428704,0.9730143985137019,0.5091822096880745,0.4925394547686857,0.7757284918639243,0.4323308909434622,0.33713619101516795
0.6475,0.63375,0.68875,0.61125,0.7225,0.5575,0.88625,0.84875,0.76925,0.718,0.7497499999999999,0.66375,0.4582907570831398,0.5078495123084069,0.9725963771481654,0.5100430418463314,0.49182209463680493,0.7757284918639243,0.4323308909434622,0.33713619101516795
0.6475,0.63375,0.68875,0.61125,0.7225,0.5575,0.88625,0.84875,0.7697499999999999,0.7184999999999999,0.7495,0.665,0.45833720390153276,0.5082210868555503,0.9719461216906642,0.5114777619698468,0.4898134864077849,0.7795697581507446,0.437670096034723,0.3325588180075655
0.6475,0.63375,0.68875,0.61125,0.7225,0.5575,0.88625,0.84875,0.7702500000000001,0.7190000000000001,0.74925,0.66625,0.4582443102647469,0.5077101718532281,0.9728286112401301,0.5113342898032245,0.48967001438140867,0.7671023935987532,0.4447808905115072,0.32025320911525235
0.6475,0.63375,0.68875,0.61125,0.7225,0.5575,0.88625,0.84875,0.77075,0.7195,0.7490000000000001,0.6675,0.45870877844867625,0.5075243845796563,0.9731072921504877,0.5109038735838497,0.48938307032865636,0.7680947053006498,0.46791495655075455,0.3175338704024192
0.6475,0.63375,0.68875,0.61125,0.7225,0.5575,0.88625,0.84875,0.77125,0.72,0.74875,0.66875,0.45935903390617744,0.5070599163957269,0.9723641430562007,0.5121951219614814,0.4890961259954116,0.7680947053006498,0.46791495655075455,0.3175338704024192
0.6475,0.63375,0.68875,0.61125,0.7225,0.5575,0.88625,0.84875,0.77125,0.72,0.74875,0.66875,0.45880167208546213,0.5068741291221551,0.9729679516953089,0.5131994261461146,0.48694404559976917,0.7546898608939052,0.46790366606827116,0.3102419839814125
0.6475,0.63375,0.68875,0.61125,0.7225,0.5575,0.88625,0.84875,0.77125,0.72,0.74875,0.66875,0.45949837436135627,0.5062703204830469,0.9736646539712029,0.5129124822336085,0.4855093250555151,0.7498928453787704,0.47145813532180175,0.3061553733271906
0.6475,0.63375,0.68875,0.61125,0.7225,0.5575,0.88625,0.84875,0.77125,0.72,0.74875,0.66875,0.4593125870877845,0.5057594054807246,0.9732001857872736,0.5129124822336085,0.4826398843877456,0.7480118235589457,0.4607684346567967,0.2988535797651224
0.6475,0.634,0.6884999999999999,0.61125,0.7225,0.5579999999999999,0.88625,0.8484999999999999,0.7725,0.7204999999999999,0.74875,0.6705,0.45963771481653504,0.5056665118439387,0.9736182071528101,0.5133428984529832,0.478622667649213,0.7308327519757676,0.4856478192720317,0.2582526283267629
0.6475,0.63425,0.68825,0.61125,0.7225,0.5585,0.88625,0.8482500000000001,0.77375,0.721,0.74875,0.6722499999999999,0.459684161634928,0.506130980027868,0.9743149094287041,0.5129124822336085,0.47503586713005513,0.7308327519757676,0.4856478192720317,0.2582526283267629
0.6475,0.6345000000000001,0.688,0.61125,0.7225,0.5589999999999999,0.88625,0.848,0.775,0.7215,0.74875,0.674,0.4602415234556433,0.5062703204830469,0.9735717603344172,0.5129124822336085,0.4707317060582778,0.7231624029389111,0.498094062710875,0.2500515793954479
0.6475,0.63475,0.6877500000000001,0.61125,0.7225,0.5595,0.88625,0.84775,0.77625,0.722,0.74875,0.6757500000000001,0.4590803529958198,0.5062238736646539,0.9737575476079888,0.5126255381808561,0.4648493536780862,0.7002122735122627,0.5390304577667572,0.2363637412865152
0.6475,0.635,0.6875,0.61125,0.7225,0.56,0.88625,0.8475,0.7775,0.7225,0.74875,0.6775,0.45917324663260567,0.5060380863910822,0.9740826753367395,0.5133428984529832,0.46040172128116386,0.7002122735122627,0.5390304577667572,0.2363637412865152
0.6475,0.635,0.6875,0.61125,0.7225,0.56,0.88625,0.8475,0.7775,0.7225,0.74875,0.6775,0.45977705527171386,0.5065490013934045,0.9736182071528101,0.5154949789888719,0.45868005696464986,0.687769287897069,0.5568196845209408,0.2290567044630007
0.6475,0.635,0.6875,0.61125,0.7225,0.56,0.88625,0.8475,0.7775,0.7225,0.74875,0.6775,0.46103111936832325,0.5071063632141198,0.9734324198792382,0.5176470595247605,0.4609756093866685,0.6734086942620097,0.5781746268213831,0.21718223636290535
0.6475,0.635,0.6875,0.61125,0.7225,0.56,0.88625,0.8475,0.7775,0.7225,0.74875,0.6775,0.4609382257315374,0.5068276823037622,0.9737575476079888,0.520946915991166,0.4672883788277121,0.6782300887139426,0.5692771963473898,0.2185599688847168
0.6475,0.635,0.6872499999999999,0.61125,0.72275,0.5607500000000001,0.88575,0.84725,0.77775,0.7225,0.7482500000000001,0.6765000000000001,0.46112401300510913,0.5074314909428704,0.9729679516953089,0.5236728844923132,0.4751793397174162,0.6801354894705652,0.5799518504007094,0.2080620341878171
0.6475,0.635,0.687,0.61125,0.723,0.5615,0.8852500000000001,0.847,0.778,0.7225,0.74775,0.6755,0.4609846725499303,0.5075708313980493,0.9732930794240595,0.5256814928615794,0.48149210859747493,0.670547556140302,0.5781689705327024,0.20211163289297188
0.6475,0.635,0.68675,0.61125,0.7232500000000001,0.56225,0.8847499999999999,0.84675,0.77825,0.7225,0.74725,0.6745,0.4594054807245704,0.5076172782164422,0.9736646539712029,0.5255380204144646,0.4839311329056235,0.6523152314448472,0.6778592025574203,0.20978119555792504
0.6475,0.635,0.6865000000000001,0.61125,0.7234999999999999,0.563,0.88425,0.8465,0.7785,0.7225,0.74675,0.6735,0.45745471435206686,0.5074779377612634,0.9732930794240595,0.5246771879757152,0.4802008599393508,0.6484922345315883,0.6760819789780937,0.20931315016081628
0.6475,0.635,0.68625,0.61125,0.72375,0.56375,0.88375,0.84625,0.77875,0.7225,0.74625,0.6725,0.4577333952624245,0.507756618671621,0.9731072921504877,0.521520803675932,0.4731707305066726,0.6456067174730828,0.6743141457217722,0.2120238846210835
0.6475,0.635,0.68625,0.61125,0.72375,0.56375,0.88375,0.84625,0.77875,0.7225,0.74625,0.6725,0.45852299117510453,0.5074314909428704,0.9731072921504877,0.5196556674732882,0.4665710171531228,0.6628650117034318,0.6725331660132439,0.21205903666799802
0.6475,0.635,0.68625,0.61125,0.72375,0.56375,0.88375,0.84625,0.77875,0.7225,0.74625,0.6725,0.4588481189038551,0.5081746400371574,0.9717138875986995,0.5195121955871582,0.46011477638693415,0.6628650117034318,0.6725331660132439,0.21205903666799802
0.6475,0.635,0.68625,0.61125,0.72375,0.56375,0.88375,0.84625,0.77875,0.7225,0.74625,0.6725,0.46042731072921506,0.5087784486762656,0.9707849512308406,0.5195121955871582,0.45824964018429026,0.6599916781817105,0.6636319794100486,0.20796108050687526
0.64775,0.63525,0.68625,0.6114999999999999,0.7240000000000001,0.56475,0.884,0.846,0.779,0.7232500000000001,0.7465,0.6725,0.462006502554575,0.5102183000464469,0.9706920575940547,0.5169296992526334,0.4625538012560676,0.6283971692530999,0.7454822548414792,0.17651364137514503
0.648,0.6355,0.68625,0.61175,0.72425,0.56575,0.88425,0.84575,0.77925,0.7240000000000001,0.74675,0.6725,0.46293543892243383,0.5107756618671621,0.9703669298653043,0.5137733145321117,0.4725968432426453,0.6255238357313785,0.7668353190773206,0.16598998904293832
0.64825,0.63575,0.68625,0.612,0.7245,0.56675,0.8845000000000001,0.8454999999999999,0.7795000000000001,0.7247499999999999,0.747,0.6725,0.46377148165350673,0.510822108685555,0.9709707385044124,0.5104734577852137,0.48493543779148773,0.6255238357313785,0.7668353190773206,0.16598998904293832
0.6485,0.636,0.68625,0.61225,0.7247499999999999,0.56775,0.8847499999999999,0.8452500000000001,0.7797499999999999,0.7254999999999999,0.74725,0.6725,0.46474686483975847,0.510822108685555,0.9713887598699489,0.5061692968536826,0.4994261117542491,0.6255238357313785,0.7668353190773206,0.16598998904293832
0.64875,0.63625,0.68625,0.6125,0.725,0.56875,0.885,0.845,0.78,0.72625,0.7475,0.6725,0.46251741755689735,0.5113794705062703,0.97124941941477,0.501721664316514,0.5088952654950759,0.6389347659749004,0.8042229011683529,0.17052252769730522
0.64875,0.63625,0.68625,0.6125,0.725,0.56875,0.885,0.845,0.78,0.72625,0.7475,0.6725,0.4600092893636786,0.5112401300510915,0.9707385044124477,0.5005738881055046,0.5143472024973701,0.6389347659749004,0.8042229011683529,0.17052252769730522
0.64875,0.63625,0.68625,0.6125,0.725,0.56875,0.885,0.845,0.78,0.72625,0.7475,0.6725,0.4578262888992104,0.5107756618671621,0.9709707385044124,0.49928263986811916,0.5094691534603343,0.639896612903222,0.8060095371655617,0.17143375119273394
0.64875,0.63625,0.68625,0.6125,0.725,0.56875,0.885,0.845,0.78,0.72625,0.7475,0.6725,0.4568973525313516,0.5115188109614491,0.9701346957733396,0.49870875176261453,0.49870875134187587,0.6120702453142675,0.8326848818163775,0.1645889227105675
0.64875,0.63625,0.68625,0.6125,0.725,0.56875,0.885,0.845,0.78,0.72625,0.7475,0.6725,0.4555039479795634,0.5114723641430562,0.9698560148629819,0.4968436154197244,0.483500716826495,0.6120702453142675,0.8326848818163775,0.1645889227105675
0.64875,0.6365,0.6865000000000001,0.6125,0.725,0.56875,0.885,0.845,0.7795000000000001,0.72675,0.7475,0.6722499999999999,0.4568044588945657,0.5100325127728751,0.971295866233163,0.49827833568348606,0.47073170689975513,0.5967295353773251,0.8397937982285609,0.157300391515687
0.64875,0.6367499999999999,0.68675,0.6125,0.725,0.56875,0.885,0.845,0.779,0.72725,0.7475,0.672,0.4588481189038551,0.5098931723176963,0.9732001857872736,0.49813486365710985,0.46040172128116386,0.5967295353773251,0.8397937982285609,0.157300391515687
0.64875,0.637,0.687,0.6125,0.725,0.56875,0.885,0.845,0.7785,0.72775,0.7475,0.67175,0.4606130980027868,0.510822108685555,0.9733395262424525,0.4972740314988529,0.46040172128116386,0.6101465633208539,0.6813459952006833,0.15920295750154134
0.64875,0.63725,0.6872499999999999,0.6125,0.725,0.56875,0.885,0.845,0.778,0.7282500000000001,0.7475,0.6715000000000001,0.46242452392011146,0.5101718532280539,0.9725963771481654,0.4964131993405959,0.468436154758229,0.6110535546755729,0.6973749009569491,0.1687576499299801
0.64875,0.6375,0.6875,0.6125,0.725,0.56875,0.885,0.845,0.7775,0.72875,0.7475,0.67125,0.46451463074779376,0.5098931723176963,0.9725499303297724,0.49626972731421976,0.4823529411764706,0.6110535546755729,0.6973749009569491,0.1687576499299801
0.64875,0.6375,0.6875,0.6125,0.725,0.56875,0.885,0.845,0.7775,0.72875,0.7475,0.67125,0.4663725034835114,0.5098931723176963,0.9711565257779842,0.49311334273394414,0.496700143253102,0.6052398485217431,0.7241141439939527,0.193306738381339
0.64875,0.6375,0.6875,0.6125,0.725,0.56875,0.885,0.845,0.7775,0.72875,0.7475,0.67125,0.4669763121226196,0.5090571295866233,0.97124941941477,0.4928263986811918,0.5088952653548297,0.6052398485217431,0.7241141439939527,0.193306738381339
0.64875,0.6375,0.6875,0.6125,0.725,0.56875,0.885,0.845,0.7775,0.72875,0.7475,0.67125,0.4676265675801208,0.5082210868555503,0.9718067812354854,0.49741750352522907,0.5167862269457649,0.614766852304856,0.7241442372173233,0.21334839184184723
0.64875,0.63725,0.6872499999999999,0.61225,0.7247499999999999,0.56825,0.885,0.8447499999999999,0.77625,0.7275,0.7465,0.66875,0.4653042266604738,0.5076637250348351,0.9738968880631677,0.5001434720263762,0.5208034436842974,0.6146998250576985,0.731305783628089,0.24840590151299816
0.64875,0.637,0.687,0.612,0.7245,0.56775,0.885,0.8445,0.775,0.72625,0.7454999999999999,0.66625,0.4628889921040409,0.5083604273107292,0.9750116117045983,0.5020086083692663,0.5216642761230469,0.6223214162209592,0.7544548078995109,0.26298297543274607
0.64875,0.6367499999999999,0.68675,0.61175,0.72425,0.56725,0.885,0.84425,0.77375,0.725,0.7445,0.66375,0.46010218300046446,0.509289363678588,0.9757083139804923,0.5020086083692663,0.5212338601841646,0.6098540516689678,0.7633616286965089,0.26478640659305847
0.64875,0.6365,0.6865000000000001,0.6114999999999999,0.7240000000000001,0.56675,0.885,0.8440000000000001,0.7725,0.72375,0.7434999999999999,0.66125,0.4578262888992104,0.5097538318625174,0.974454249883883,0.5007173601318808,0.5205164999120375,0.6098540516689678,0.7633616286965089,0.26478640659305847
0.64875,0.63625,0.68625,0.61125,0.72375,0.56625,0.885,0.84375,0.77125,0.7225,0.7425,0.65875,0.4567580120761728,0.5099860659544821,0.9741291221551324,0.4958393112350913,0.5169296992526334,0.6268746779578039,0.6210179644833237,0.35056350907488937
0.64875,0.63625,0.68625,0.61125,0.72375,0.56625,0.885,0.84375,0.77125,0.7225,0.7425,0.65875,0.4568973525313516,0.5109614491407338,0.9724570366929866,0.4903873743730433,0.5113342902239632,0.6345267457578692,0.5711915849272192,0.35879215502934153
0.64875,0.63625,0.68625,0.61125,0.72375,0.56625,0.885,0.84375,0.77125,0.7225,0.7425,0.65875,0.4571295866233163,0.5107292150487691,0.9709707385044124,0.4862266857483808,0.5035868005191578,0.6459957127711866,0.5213577593973437,0.37432147037216
0.64875,0.63625,0.68625,0.61125,0.72375,0.56625,0.885,0.84375,0.77125,0.7225,0.7425,0.65875,0.4568973525313516,0.5097538318625174,0.971295866233163,0.4850789096776177,0.4956958392087151,0.6661029734496888,0.48933191917278374,0.38941179876681953
0.6485,0.63575,0.6865000000000001,0.611,0.7234999999999999,0.565,0.8852500000000001,0.8440000000000001,0.77075,0.722,0.7415,0.6577500000000001,0.458151416627961,0.5091964700418021,0.9710636321411983,0.4832137733347276,0.4889526541092816,0.6661029734496888,0.48933191917278374,0.38941179876681953
0.64825,0.63525,0.68675,0.61075,0.7232500000000001,0.56375,0.8855,0.84425,0.7702500000000001,0.7215,0.7404999999999999,0.65675,0.4579191825359963,0.5091500232234092,0.9706920575940547,0.48134863713208365,0.48579626952900606,0.6737611389497611,0.4751009398962103,0.39354238767276556
0.648,0.63475,0.687,0.6104999999999999,0.723,0.5625,0.88575,0.8445,0.7697499999999999,0.721,0.7395,0.65575,0.4585694379934975,0.5090106827682304,0.9714816535067348,0.4802008609210744,0.4859397415553822,0.6737611389497611,0.4751009398962103,0.39354238767276556
0.64775,0.63425,0.6872499999999999,0.61025,0.72275,0.56125,0.8859999999999999,0.8447499999999999,0.76925,0.7204999999999999,0.7384999999999999,0.6547499999999999,0.4592196934509986,0.5089642359498374,0.9717603344170924,0.47690100417417636,0.48909612627590404,0.6670648085147808,0.5302777266465485,0.3939900595833969
0.6475,0.63375,0.6875,0.61,0.7225,0.56,0.88625,0.845,0.76875,0.72,0.7375,0.65375,0.4603808639108221,0.5082675336739433,0.9712029725963771,0.47360114742727843,0.49296987084781424,0.6555531813278745,0.5445162402764034,0.38851666248531697
0.6475,0.63375,0.6875,0.61,0.7225,0.56,0.88625,0.845,0.76875,0.72,0.7375,0.65375,0.4592196934509986,0.5066418950301904,0.9725499303297724,0.4717360109441421,0.49598278326146744,0.6104136757981978,0.6424367167904432,0.41530173531257536
0.6475,0.63375,0.6875,0.61,0.7225,0.56,0.88625,0.845,0.76875,0.72,0.7375,0.65375,0.4594519275429633,0.5057129586623317,0.9725499303297724,0.4750358674105476,0.4984218077098622,0.5998395047395857,0.6584562101288266,0.41254608290666905
0.6475,0.63375,0.6875,0.61,0.7225,0.56,0.88625,0.845,0.76875,0.72,0.7375,0.65375,0.4589874593590339,0.5051555968416164,0.9730608453320948,0.4794835000879624,0.4997130559472477,0.5998395047395857,0.6584562101288266,0.41254608290666905
0.6475,0.63375,0.6875,0.61,0.7225,0.56,0.88625,0.845,0.76875,0.72,0.7375,0.65375,0.4593125870877845,0.5056665118439387,0.9735253135160242,0.4842180769583758,0.5022955522817724,0.579707876987515,0.7154065306139222,0.4143410654692361
0.6475,0.6335000000000001,0.6877500000000001,0.60975,0.7225,0.55925,0.8865000000000001,0.845,0.7695000000000001,0.7197499999999999,0.7375,0.6535,0.4593125870877845,0.5066883418485834,0.9730608453320948,0.4863701574942645,0.503730272545534,0.579707876987515,0.7154065306139222,0.4143410654692361
0.6475,0.63325,0.688,0.6095,0.7225,0.5585,0.8867499999999999,0.845,0.7702500000000001,0.7195,0.7375,0.65325,0.4599163957268927,0.5071992568509057,0.9725034835113795,0.4880918218107784,0.5030129124136532,0.5662664819704178,0.7029377283049899,0.41111917787413077
0.6475,0.633,0.68825,0.60925,0.7225,0.55775,0.887,0.845,0.7709999999999999,0.71925,0.7375,0.653,0.45917324663260567,0.5069205759405481,0.9735717603344172,0.48737446167889764,0.501865136202644,0.5460434361711626,0.6922630300619149,0.4311495665376451
0.6475,0.63275,0.6884999999999999,0.609,0.7225,0.557,0.88725,0.845,0.7717499999999999,0.7190000000000001,0.7375,0.65275,0.45880167208546213,0.5062238736646539,0.9738039944263819,0.4866571015470168,0.4999999998597538,0.5460434361711626,0.6922630300619149,0.4311495665376451
0.6475,0.6325,0.68875,0.60875,0.7225,0.55625,0.8875,0.845,0.7725,0.71875,0.7375,0.6525,0.4584765443567116,0.5048769159312587,0.9747329307942406,0.48794834978440227,0.4975609755516052,0.547954934627792,0.6904820503533866,0.4320678694449
0.6475,0.6325,0.68875,0.60875,0.7225,0.55625,0.8875,0.845,0.7725,0.71875,0.7375,0.6525,0.45810496980956805,0.5044124477473293,0.9763585694379935,0.490530846118927,0.4981348636571099,0.547954934627792,0.6904820503533866,0.4320678694449
0.6475,0.6325,0.68875,0.60875,0.7225,0.55625,0.8875,0.845,0.7725,0.71875,0.7375,0.6525,0.4583836507199257,0.5053413841151881,0.9757083139804923,0.49182209449655867,0.5005738881055046,0.5498603353844145,0.7154140428723262,0.43845953197777815
0.6475,0.6325,0.68875,0.60875,0.7225,0.55625,0.8875,0.845,0.7725,0.71875,0.7375,0.6525,0.4588481189038551,0.5062703204830469,0.9748258244310264,0.4913916784174302,0.5025824964747709,0.5142661148746416,0.6887311417733513,0.4767648861265655
0.64725,0.63225,0.6884999999999999,0.60925,0.72225,0.5557500000000001,0.8867499999999999,0.8447499999999999,0.77275,0.71875,0.738,0.65225,0.459684161634928,0.5063632141198328,0.9738039944263819,0.49311334273394414,0.5060258251077988,0.5324862441700827,0.6922987574790884,0.47721172211316193
0.647,0.632,0.68825,0.60975,0.722,0.55525,0.8859999999999999,0.8445,0.773,0.71875,0.7384999999999999,0.652,0.45963771481653504,0.5058987459359033,0.972921504876916,0.4941176469185773,0.509038737521452,0.5334785558719796,0.6976304282170678,0.47585612716579123
0.6467499999999999,0.6317499999999999,0.688,0.61025,0.72175,0.55475,0.8852500000000001,0.84425,0.77325,0.71875,0.7390000000000001,0.6517499999999999,0.4595448211797492,0.506177426846261,0.9720390153274501,0.4967001433933482,0.510616929951836,0.5334785558719796,0.6976304282170678,0.47585612716579123
0.6465000000000001,0.6315,0.6877500000000001,0.61075,0.7215,0.55425,0.8845000000000001,0.8440000000000001,0.7735,0.71875,0.7395,0.6515000000000001,0.4593125870877845,0.5064561077566186,0.9720390153274501,0.49784791960435754,0.5120516502155977,0.5334785558719796,0.6976304282170678,0.47585612716579123
0.64625,0.63125,0.6875,0.61125,0.72125,0.55375,0.88375,0.84375,0.77375,0.71875,0.74,0.65125,0.4586623316302833,0.5055271713887599,0.9722712494194148,0.4984218077098622,0.5119081781892215,0.5305747575766829,0.6780489754616277,0.4845535103165536
0.64625,0.63125,0.6875,0.61125,0.72125,0.55375,0.88375,0.84375,0.77375,0.71875,0.74,0.65125,0.45764050162563863,0.5052484904784023,0.9720390153274501,0.4988522237889907,0.5086083215825697,0.5305747575766829,0.6780489754616277,0.4845535103165536
0.64625,0.63075,0.6877500000000001,0.6114999999999999,0.72125,0.5535,0.88375,0.8440000000000001,0.77375,0.7184999999999999,0.7402500000000001,0.6509999999999999,0.4567580120761728,0.5053878309335811,0.9723641430562007,0.5007173601318808,0.504160688905155,0.5478513330438229,0.6477947246225912,0.4850146377216497
0.64625,0.63025,0.688,0.61175,0.72125,0.55325,0.88375,0.84425,0.77375,0.71825,0.7404999999999999,0.65075,0.45661867162099395,0.5045517882025081,0.9723641430562007,0.5011477762110093,0.5,0.5717937623091387,0.601534148992256,0.4992074056551058
0.64625,0.62975,0.68825,0.612,0.72125,0.5529999999999999,0.88375,0.8445,0.77375,0.718,0.74075,0.6505,0.45652577798420807,0.5036228518346493,0.9732001857872736,0.5034433286330279,0.4968436154197244,0.5746609981308533,0.5694970182852126,0.5074189612867899
0.64625,0.62925,0.6884999999999999,0.61225,0.72125,0.55275,0.88375,0.8447499999999999,0.77375,0.7177500000000001,0.741,0.6502500000000001,0.4568973525313516,0.5043660009289364,0.9728286112401301,0.5054519370022942,0.494691535024082,0.5784961785808963,0.5517059355613056,0.5192919939035425
0.64625,0.62875,0.68875,0.6125,0.72125,0.5525,0.88375,0.845,0.77375,0.7175,0.74125,0.65,0.457361820715281,0.5053878309335811,0.9733395262424525,0.5045911048440372,0.49512195110321044,0.5784961785808963,0.5517059355613056,0.5192919939035425
0.64625,0.62875,0.68875,0.6125,0.72125,0.5525,0.88375,0.845,0.77375,0.7175,0.74125,0.65,0.45801207617278217,0.5055736182071529,0.9722712494194148,0.5021520803956424,0.49713055947247675,0.5736747841289633,0.555269795137841,0.527987117176914
0.64625,0.62875,0.68875,0.6125,0.72125,0.5525,0.88375,0.845,0.77375,0.7175,0.74125,0.65,0.4583836507199257,0.5056665118439387,0.9727821644217371,0.5004304160791285,0.4984218077098622,0.5823069800941414,0.5374730782201314,0.5330138310607211
0.64625,0.62875,0.68875,0.6125,0.72125,0.5525,0.88375,0.845,0.77375,0.7175,0.74125,0.65,0.4582907570831398,0.5059451927542963,0.9725034835113795,0.4994261118944954,0.5,0.5823069800941414,0.5374730782201314,0.5330138310607211
0.64625,0.62875,0.68875,0.6125,0.72125,0.5525,0.88375,0.845,0.77375,0.7175,0.74125,0.65,0.45810496980956805,0.506177426846261,0.9726892707849513,0.49928263986811916,0.5024390244483947,0.5985973415593916,0.5499662953688762,0.5425682525344726
0.6459999999999999,0.62875,0.68875,0.613,0.72125,0.55325,0.88425,0.8452500000000001,0.7735,0.7175,0.742,0.65,0.45764050162563863,0.5062238736646539,0.972921504876916,0.4997130559472477,0.5050215209231658,0.5985973415593916,0.5499662953688762,0.5425682525344726
0.64575,0.62875,0.68875,0.6135,0.72125,0.5539999999999999,0.8847499999999999,0.8454999999999999,0.77325,0.7175,0.74275,0.65,0.45671156525777984,0.5064561077566186,0.9740362285183465,0.4994261118944954,0.5064562411869273,0.6033699781377286,0.5731059956019264,0.5498794805081482
0.6455,0.62875,0.68875,0.614,0.72125,0.55475,0.8852500000000001,0.84575,0.773,0.7175,0.7434999999999999,0.65,0.45601486298188576,0.5064561077566186,0.9733859730608454,0.499139167841743,0.5073170733451843,0.5765298364138938,0.6122595328846793,0.5516858979350128
0.6452500000000001,0.62875,0.68875,0.6145,0.72125,0.5555,0.88575,0.846,0.77275,0.7175,0.74425,0.65,0.45545750116117045,0.5059916395726892,0.9728286112401301,0.49870875176261453,0.507030129292432,0.6033456110641604,0.5197252130769242,0.5759186208466378
0.645,0.62875,0.68875,0.615,0.72125,0.55625,0.88625,0.84625,0.7725,0.7175,0.745,0.65,0.4552717138875987,0.5057129586623317,0.9720390153274501,0.49928263986811916,0.5040172167385326,0.5966431829291733,0.5054773091240644,0.5768211161421439
0.645,0.62875,0.68875,0.615,0.72125,0.55625,0.88625,0.84625,0.7725,0.7175,0.745,0.65,0.4552717138875987,0.5055271713887599,0.9709242916860195,0.5001434720263762,0.5,0.5966431829291733,0.5054773091240644,0.5768211161421439
0.645,0.62875,0.68875,0.615,0.72125,0.55625,0.88625,0.84625,0.7725,0.7175,0.745,0.65,0.4561542034370646,0.5057594054807246,0.9707849512308406,0.5025824964747709,0.49598278326146744,0.5697847599685473,0.5713400404102056,0.5850472456770016
0.6445000000000001,0.6285000000000001,0.68825,0.615,0.72125,0.556,0.8859999999999999,0.84575,0.7725,0.7172499999999999,0.7454999999999999,0.65,0.4572224802601022,0.5065954482117975,0.9714352066883418,0.5040172167385326,0.49268292665481567,0.575494864538408,0.5731323106012174,0.5923281641981716
0.644,0.62825,0.6877500000000001,0.615,0.72125,0.5557500000000001,0.88575,0.8452500000000001,0.7725,0.7170000000000001,0.746,0.65,0.45764050162563863,0.5067812354853692,0.9717603344170924,0.5048780488967896,0.4916786224701825,0.575494864538408,0.5731323106012174,0.5923281641981716
0.6435,0.628,0.6872499999999999,0.615,0.72125,0.5555,0.8855,0.8447499999999999,0.7725,0.71675,0.7465,0.65,0.457361820715281,0.5067812354853692,0.9718532280538783,0.504447632817661,0.4936872308394488,0.5725484060695225,0.5891743628096898,0.613269482342454
0.643,0.62775,0.68675,0.615,0.72125,0.55525,0.8852500000000001,0.84425,0.7725,0.7165,0.747,0.65,0.4571295866233163,0.5066883418485834,0.9722712494194148,0.5034433286330279,0.4921090384090648,0.5725484060695225,0.5891743628096898,0.613269482342454
0.6425,0.6275,0.68625,0.615,0.72125,0.555,0.885,0.84375,0.7725,0.71625,0.7475,0.65,0.4561542034370646,0.5063632141198328,0.9717138875986995,0.5022955524220186,0.4889526538287892,0.5639101124043375,0.5820654463975065,0.6214791557038111
0.6425,0.6275,0.68625,0.615,0.72125,0.555,0.885,0.84375,0.7725,0.71625,0.7475,0.65,0.45555039479795634,0.505480724570367,0.9713423130515559,0.5022955524220186,0.4863701573540183,0.5581390664240968,0.5998659194444182,0.6250980956854917
0.6425,0.6275,0.68625,0.615,0.721,0.55525,0.88575,0.84375,0.77325,0.71575,0.74725,0.6497499999999999,0.45601486298188576,0.5052949372967952,0.9716674407803065,0.5022955524220186,0.482783356554368,0.5447159526437907,0.6016450431832232,0.6246157069849432
0.6425,0.6275,0.68625,0.615,0.72075,0.5555,0.8865000000000001,0.84375,0.774,0.71525,0.747,0.6495000000000001,0.4577333952624245,0.5048304691128658,0.9727357176033442,0.5038737447121564,0.481061692237854,0.5437784846522671,0.598077427477486,0.6205457600439819
0.6425,0.6275,0.68625,0.615,0.7204999999999999,0.5557500000000001,0.88725,0.84375,0.7747499999999999,0.71475,0.74675,0.64925,0.4594054807245704,0.5044588945657222,0.9734788666976313,0.5060258251077988,0.48292682872099035,0.5370882519172936,0.6087539595954067,0.620555099333199
0.6425,0.6275,0.68625,0.615,0.7202500000000001,0.556,0.888,0.84375,0.7755,0.7142499999999999,0.7465,0.649,0.460473757547608,0.504644681839294,0.9737111007895959,0.5073170733451843,0.4929698702868293,0.520773523378475,0.5980661369950027,0.6123383840324719
0.6425,0.6275,0.68625,0.615,0.72,0.55625,0.88875,0.84375,0.77625,0.71375,0.74625,0.64875,0.4602415234556433,0.5058058522991176,0.9733859730608454,0.5083213773895713,0.5020086080887738,0.42759679986060223,0.7369287090433605,0.6523155314835568
0.6425,0.6275,0.68625,0.615,0.72,0.55625,0.88875,0.84375,0.77625,0.71375,0.74625,0.64875,0.45949837436135627,0.5065954482117975,0.9719925685090571,0.5101865138727076,0.5093256815742044,0.42759679986060223,0.7369287090433605,0.6523155314835568
0.6425,0.6275,0.68625,0.615,0.72,0.55625,0.88875,0.84375,0.77625,0.71375,0.74625,0.64875,0.4572224802601022,0.5070599163957269,0.9713423130515559,0.5111908180573408,0.5129124822336085,0.42566093433040453,0.7280181321171606,0.6527893245790294
0.6425,0.6275,0.68625,0.615,0.72,0.55625,0.88875,0.84375,0.77625,0.71375,0.74625,0.64875,0.45494658615884814,0.5075243845796563,0.9706920575940547,0.5121951222419738,0.5164992828930125,0.44297407227112673,0.6514544317784084,0.6318916070794072
0.64275,0.6275,0.68625,0.61475,0.72,0.5557500000000001,0.88875,0.8434999999999999,0.7767499999999999,0.7142499999999999,0.7465,0.64875,0.4539712029725964,0.5074779377612634,0.97124941941477,0.5117647061628454,0.5116212342767155,0.44297407227112673,0.6514544317784084,0.6318916070794072
0.643,0.6275,0.68625,0.6145,0.72,0.55525,0.88875,0.84325,0.77725,0.71475,0.74675,0.64875,0.4538783093358105,0.5072921504876916,0.9716674407803065,0.5104734580657061,0.508751793608946,0.4477710877862618,0.622956745808088,0.6273713305658828
0.64325,0.6275,0.68625,0.61425,0.72,0.55475,0.88875,0.843,0.77775,0.71525,0.747,0.64875,0.45429633070134695,0.5068276823037622,0.9725963771481654,0.5084648495561936,0.507030129292432,0.45066880024478106,0.5802280584663164,0.6201012934696497
0.6435,0.6275,0.68625,0.614,0.72,0.55425,0.88875,0.8427500000000001,0.77825,0.71575,0.74725,0.64875,0.4548072457036693,0.5072457036692987,0.9727357176033442,0.506169297134175,0.5076040175381829,0.4650537609534088,0.5143503026633675,0.6187957847844509
0.64375,0.6275,0.68625,0.61375,0.72,0.55375,0.88875,0.8425,0.77875,0.71625,0.7475,0.64875,0.45513237343241986,0.507803065490014,0.972085462145843,0.5037302726857802,0.5074605455118067,0.4650537609534088,0.5143503026633675,0.6187957847844509
0.64375,0.6275,0.68625,0.61375,0.72,0.55375,0.88875,0.8425,0.77875,0.71625,0.7475,0.64875,0.45485369252206226,0.5079888527635857,0.9706456107756618,0.5015781922901378,0.5080344336173114,0.45929489850995225,0.5072225835102968,0.6151617261077259
0.64375,0.6275,0.68625,0.61375,0.72,0.55375,0.88875,0.8425,0.77875,0.71625,0.7475,0.64875,0.4544821179749187,0.5076172782164422,0.9691128657686948,0.4997130559472477,0.5076040175381829,0.44970086747968224,0.516118135919689,0.608332261332821
0.6435,0.6275,0.6865000000000001,0.61375,0.7197499999999999,0.55425,0.889,0.84175,0.7805,0.7170000000000001,0.748,0.6497499999999999,0.45420343706456107,0.5079888527635857,0.9681839294008361,0.49784791960435754,0.5037302728260264,0.42096750853600884,0.5481176390500804,0.5814554962864276
0.64325,0.6275,0.68675,0.61375,0.7195,0.55475,0.88925,0.841,0.7822499999999999,0.7177500000000001,0.7484999999999999,0.65075,0.4544821179749187,0.5068276823037622,0.9681374825824431,0.4961262552878436,0.4988522237889907,0.4238774045313124,0.5285267738767578,0.5755499639347784
0.643,0.6275,0.687,0.61375,0.71925,0.55525,0.8895000000000001,0.84025,0.784,0.7184999999999999,0.7490000000000001,0.6517499999999999,0.45513237343241986,0.5056200650255458,0.9688341848583372,0.49483500705045813,0.49512195110321044,0.4238774045313124,0.5285267738767578,0.5755499639347784
0.64275,0.6275,0.6872499999999999,0.61375,0.7190000000000001,0.5557500000000001,0.8897499999999999,0.8395,0.7857500000000001,0.71925,0.7495,0.65275,0.4564328843474222,0.505434277751974,0.9699024616813748,0.49426111894495345,0.493830702865825,0.41238407044442665,0.5409711392510002,0.5618682655437566
0.6425,0.6275,0.6875,0.61375,0.71875,0.55625,0.89,0.83875,0.7875,0.72,0.75,0.65375,0.45685090571295867,0.5049233627496517,0.9717603344170924,0.4945480629977058,0.4949784790768343,0.41238407044442665,0.5409711392510002,0.5618682655437566
0.6425,0.6275,0.6875,0.61375,0.71875,0.55625,0.89,0.83875,0.7875,0.72,0.75,0.65375,0.45671156525777984,0.5050627032048305,0.9721783557826289,0.4955523671823389,0.49956958378062527,0.39513795975086174,0.5712216339608346,0.5636833102831605
0.6425,0.6275,0.6875,0.61375,0.71875,0.55625,0.89,0.83875,0.7875,0.72,0.75,0.65375,0.45638643752902924,0.5059916395726892,0.9714816535067348,0.49626972731421976,0.5031563844400294,0.37596208122710595,0.6246230751964471,0.5627460376653073
0.64275,0.6275,0.6875,0.61425,0.71875,0.55625,0.8905,0.83875,0.7895,0.72,0.75075,0.6545000000000001,0.4559684161634928,0.5068276823037622,0.9710171853228053,0.49741750352522907,0.5044476326774149,0.3548625088467069,0.6566620618732139,0.5599776388591176
0.643,0.6275,0.6875,0.61475,0.71875,0.55625,0.8909999999999999,0.83875,0.7915000000000001,0.72,0.7515000000000001,0.6552500000000001,0.45485369252206226,0.5065025545750116,0.971295866233163,0.49870875176261453,0.503730272545534,0.3471738785730595,0.6691233519237424,0.5599837699295387
0.64325,0.6275,0.6875,0.61525,0.71875,0.55625,0.8915000000000001,0.83875,0.7935,0.72,0.75225,0.6559999999999999,0.45513237343241986,0.5067812354853692,0.9710171853228053,0.4997130559472477,0.5011477760707631,0.35005939563156496,0.6619975108352727,0.5544919104402749
0.6435,0.6275,0.6875,0.61575,0.71875,0.55625,0.892,0.83875,0.7955,0.72,0.753,0.65675,0.4554110543427775,0.5063167673014398,0.9711565257779842,0.5014347202637617,0.4984218077098622,0.332813284938,0.6851316210642753,0.5544885062117054
0.64375,0.6275,0.6875,0.61625,0.71875,0.55625,0.8925,0.83875,0.7975,0.72,0.75375,0.6575,0.4564793311658151,0.5060845332094751,0.9726428239665583,0.5037302726857802,0.4979913916307337,0.33477962710500253,0.63883339576241,0.5486319359485257
0.64375,0.6275,0.6875,0.61625,0.71875,0.55625,0.8925,0.83875,0.7975,0.72,0.75375,0.6575,0.4566651184393869,0.5059451927542963,0.9732930794240595,0.5054519370022942,0.5,0.3290085811247618,0.6548529332905487,0.5449690523050814
0.64375,0.6275,0.6875,0.61625,0.71875,0.55625,0.8925,0.83875,0.7975,0.72,0.75375,0.6575,0.4571295866233163,0.5063632141198328,0.9735253135160242,0.5076040173979367,0.5051649929495419,0.33572927863331037,0.6334960687357504,0.5477227936156943
0.64375,0.6275,0.6875,0.61625,0.71875,0.55625,0.8925,0.83875,0.7975,0.72,0.75375,0.6575,0.4564328843474222,0.5060845332094751,0.972921504876916,0.508751793608946,0.5086083215825697,0.33572927863331037,0.6334960687357504,0.5477227936156943
0.6435,0.62775,0.6872499999999999,0.61625,0.7184999999999999,0.55625,0.892,0.8384999999999999,0.79825,0.721,0.75425,0.6579999999999999,0.4557361820715281,0.5066418950301904,0.9730608453320948,0.507030129292432,0.5083213775298174,0.34627297305511784,0.6050096511530356,0.5454674388621591
0.64325,0.628,0.687,0.61625,0.71825,0.55625,0.8915000000000001,0.83825,0.799,0.722,0.7547499999999999,0.6585,0.45438922433813284,0.5071063632141198,0.9723176962378077,0.5053084649759181,0.5067431852396796,0.34627297305511784,0.6050096511530356,0.5454674388621591
0.643,0.62825,0.68675,0.61625,0.718,0.55625,0.8909999999999999,0.838,0.79975,0.723,0.7552500000000001,0.659,0.4540176497909893,0.5074314909428704,0.9726428239665583,0.5040172167385326,0.504447632817661,0.3501264347419519,0.5889789115219242,0.5395637801333463
0.64275,0.6285000000000001,0.6865000000000001,0.61625,0.7177500000000001,0.55625,0.8905,0.8377500000000001,0.8005,0.7240000000000001,0.75575,0.6595,0.453506734788667,0.5078495123084069,0.9725963771481654,0.5022955524220186,0.5,0.3712869366695013,0.521322054075048,0.5291230111104451
0.6425,0.62875,0.68625,0.61625,0.7175,0.55625,0.89,0.8375,0.80125,0.725,0.75625,0.66,0.45290292614955874,0.5082210868555503,0.9731537389688807,0.5010043041846332,0.49655667136697207,0.38469178107624596,0.49995394322752124,0.525966048870379
0.6425,0.62875,0.68625,0.61625,0.7175,0.55625,0.89,0.8375,0.80125,0.725,0.75625,0.66,0.4525777984208082,0.5072457036692987,0.9730608453320948,0.5008608321582569,0.49626972731421976,0.38469178107624596,0.49995394322752124,0.525966048870379
0.64225,0.6285000000000001,0.6865000000000001,0.61625,0.7177500000000001,0.5557500000000001,0.8902500000000001,0.8377500000000001,0.80125,0.7254999999999999,0.7565000000000001,0.6605,0.45229911751045054,0.5068741291221551,0.9725499303297724,0.5008608321582569,0.49655667136697207,0.38469178107624596,0.49995394322752124,0.525966048870379
0.642,0.62825,0.68675,0.61625,0.718,0.55525,0.8905,0.838,0.80125,0.726,0.7567499999999999,0.6609999999999999,0.45164886205294935,0.5062703204830469,0.9715745471435207,0.49985652797362384,0.4956958392087151,0.4019622588433792,0.46435860923262307,0.5296464984485422
0.6417499999999999,0.628,0.687,0.61625,0.71825,0.55475,0.89075,0.83825,0.80125,0.7265,0.757,0.6615000000000001,0.4513237343241988,0.5057129586623317,0.9709242916860195,0.4979913916307337,0.4941176469185773,0.40775158606041095,0.49283939262153503,0.5186992315229283
0.6415000000000001,0.62775,0.6872499999999999,0.61625,0.7184999999999999,0.55425,0.8909999999999999,0.8384999999999999,0.80125,0.727,0.75725,0.662,0.45146307477937764,0.5057129586623317,0.9701346957733396,0.4952654231295866,0.49153515044380636,0.40775158606041095,0.49283939262153503,0.5186992315229283
0.64125,0.6275,0.6875,0.61625,0.71875,0.55375,0.89125,0.83875,0.80125,0.7275,0.7575,0.6625,0.45188109614491406,0.5056200650255458,0.9707849512308406,0.494691535024082,0.4889526539690354,0.4010247908518556,0.49639759590938975,0.5195814686318238
0.64125,0.6275,0.6875,0.61625,0.71875,0.55375,0.89125,0.83875,0.80125,0.7275,0.7575,0.6625,0.4526242452392011,0.5051091500232234,0.971295866233163,0.4944045909713296,0.48737446167889764,0.39334834411499237,0.56404696319274,0.5190821106733675
0.64125,0.62775,0.6875,0.616,0.7184999999999999,0.55375,0.8915000000000001,0.8384999999999999,0.8015000000000001,0.7275,0.75775,0.6627500000000001,0.4533209475150952,0.5051555968416164,0.9716209939619136,0.494691535024082,0.48880918194265927,0.4011040134990265,0.5604755913578008,0.505409373964499
0.64125,0.628,0.6875,0.61575,0.71825,0.55375,0.8917499999999999,0.83825,0.80175,0.7275,0.758,0.6629999999999999,0.45346028797027405,0.5047375754760799,0.9713887598699489,0.4955523671823389,0.4908177903119256,0.4011040134990265,0.5604755913578008,0.505409373964499
0.64125,0.62825,0.6875,0.6154999999999999,0.718,0.55375,0.892,0.838,0.802,0.7275,0.75825,0.66325,0.45406409660938224,0.504691128657687,0.9711565257779842,0.4977044475779814,0.49153515030356015,0.4011040134990265,0.564028204641608,0.499498759771217
0.64125,0.6285000000000001,0.6875,0.61525,0.7177500000000001,0.55375,0.89225,0.8377500000000001,0.8022499999999999,0.7275,0.7585,0.6635,0.4539247561542034,0.5053878309335811,0.971295866233163,0.499139167841743,0.49182209435631247,0.3924596339970645,0.556902385648016,0.4917369283877946
0.6415000000000001,0.6285000000000001,0.6875,0.61525,0.7177500000000001,0.5539999999999999,0.89225,0.8377500000000001,0.80175,0.7275,0.759,0.664,0.45346028797027405,0.5055736182071529,0.9707385044124477,0.5005738881055046,0.49268292651456946,0.3895923981753499,0.5640263265770071,0.4949420600297456
0.6417499999999999,0.62825,0.6875,0.6154999999999999,0.718,0.55425,0.892,0.838,0.8009999999999999,0.7275,0.75925,0.66425,0.4528564793311658,0.5058987459359033,0.97045982350209,0.5018651363428901,0.49182209435631247,0.40207804396413227,0.5747066148241295,0.49266030448919224
0.642,0.628,0.6875,0.61575,0.71825,0.5545,0.8917499999999999,0.83825,0.80025,0.7275,0.7595000000000001,0.6645,0.451927542963307,0.5063632141198328,0.97045982350209,0.5034433286330279,0.48952654193429385,0.3943772182904712,0.6120867067516358,0.4921724419274638
