C0,C1,C2,C3,C4,C5,C6,C7,C8,C9,C10,C11,Ax,Ay,Az,Gr,Gp,Fx_norm,Fy_norm,Fz_norm
0.63875,0.6325,0.68125,0.6125,0.71625,0.54625,0.85625,0.835,0.75,0.7075,0.73375,0.67125,0.49349058048705774,0.5012635931995711,0.5779471077755655,0.500134652928638,0.4983505016570902,0.4637336289251606,0.28729493460150635,0.3995041323720606
0.63875,0.6325,0.68125,0.6125,0.71625,0.54625,0.85625,0.835,0.75,0.7075,0.73375,0.67125,0.4935097258385664,0.5013114565783428,0.5779885893705008,0.5000504948482393,0.4984094123051428,0.4637336289251606,0.28729493460150635,0.3995041323720606
0.63875,0.6325,0.68125,0.6125,0.71625,0.54625,0.85625,0.835,0.75,0.7075,0.73375,0.67125,0.4933603920967989,0.50119466993414,0.5779062643590136,0.5000201979392958,0.49838416489583104,0.4637336289251606,0.28729493460150635,0.3995041323720606
0.63875,0.6325,0.68125,0.6125,0.71625,0.54625,0.85625,0.835,0.75,0.7075,0.73375,0.67125,0.4933603920967989,0.5012635931995711,0.5779598713432379,0.49985861442493007,0.4984245607546786,0.4637336289251606,0.28729493460150635,0.3995041323720606
0.639,0.6325,0.68125,0.6125,0.71625,0.5465,0.856,0.83525,0.7497499999999999,0.7075,0.7334999999999999,0.67125,0.49334507581559195,0.5012482769183643,0.5779062643590136,0.4998182185463386,0.49846495663327006,0.4637336289251606,0.28729493460150635,0.3995041323720606
0.63925,0.6325,0.68125,0.6125,0.71625,0.54675,0.85575,0.8355,0.7495,0.7075,0.7332500000000001,0.67125,0.4932991269719712,0.5011716955123297,0.5778373410935824,0.4998182185463386,0.49850535251186145,0.4637336289251606,0.28729493460150635,0.3995041323720606
0.6395000000000001,0.6325,0.68125,0.6125,0.71625,0.547,0.8554999999999999,0.83575,0.74925,0.7075,0.733,0.67125,0.49326849440955733,0.501095114106295,0.5777607596875478,0.4998384164856343,0.49852555045115715,0.4637336289251606,0.28729493460150635,0.3995041323720606
0.63975,0.6325,0.68125,0.6125,0.71625,0.54725,0.8552500000000001,0.836,0.7490000000000001,0.7075,0.73275,0.67125,0.49339102465921275,0.5011793536529331,0.5778526573747894,0.4997980206070429,0.49852555045115715,0.4637336289251606,0.28729493460150635,0.3995041323720606
0.64,0.6325,0.68125,0.6125,0.71625,0.5475,0.855,0.83625,0.74875,0.7075,0.7325,0.67125,0.4933374176749885,0.5011410629499158,0.5778373410935824,0.49989901030352146,0.4984447586742305,0.4637336289251606,0.28729493460150635,0.3995041323720606
0.64,0.6325,0.68125,0.6125,0.71625,0.5475,0.855,0.83625,0.74875,0.7075,0.7325,0.67125,0.4932991269719712,0.5010721396844846,0.577913922499617,0.49985861442493007,0.49848515455282194,0.4637336289251606,0.28729493460150635,0.3995041323720606
0.64,0.6325,0.68125,0.6125,0.71625,0.5475,0.855,0.83625,0.74875,0.7075,0.7325,0.67125,0.49334507581559195,0.5010415071220707,0.5779445550620309,0.4998182185463386,0.4984447586742305,0.4637336289251606,0.28729493460150635,0.3995041323720606
0.64,0.6325,0.68125,0.6125,0.71625,0.5475,0.855,0.83625,0.74875,0.7072499999999999,0.7325,0.67125,0.49331444325317814,0.5010491652626742,0.5780134783274621,0.4998182185463386,0.4984043627956391,0.4637336289251606,0.28729493460150635,0.3995041323720606
0.64,0.6325,0.68125,0.6125,0.71625,0.5475,0.855,0.83625,0.74875,0.7070000000000001,0.7325,0.67125,0.49339102465921275,0.5010185327002604,0.5779905039056517,0.4997980206070429,0.4983841648365996,0.4637336289251606,0.28729493460150635,0.3995041323720606
0.64,0.6325,0.68125,0.6125,0.71625,0.5475,0.855,0.83625,0.74875,0.70675,0.7325,0.67125,0.4933757083780058,0.501095114106295,0.5779828457650482,0.49985861442493007,0.4984447586742305,0.4637336289251606,0.28729493460150635,0.3995041323720606
0.64,0.6325,0.68125,0.6125,0.71625,0.5475,0.855,0.83625,0.74875,0.7065,0.7325,0.67125,0.49346760606524737,0.5011563792311227,0.5780058201868586,0.49985861442493007,0.49846495661352624,0.4637336289251606,0.28729493460150635,0.3995041323720606
0.64,0.6325,0.68125,0.6125,0.71625,0.5475,0.855,0.83625,0.74875,0.70625,0.7325,0.67125,0.4934369735028335,0.501278909480778,0.5780058201868586,0.49989901030352146,0.4984447586742305,0.4637336289251606,0.28729493460150635,0.3995041323720606
0.64,0.6325,0.68125,0.6125,0.71625,0.5475,0.855,0.83625,0.74875,0.70625,0.7325,0.67125,0.4935518456118854,0.5012253024965538,0.5779828457650482,0.5000201979392958,0.49848515455282194,0.4637336289251606,0.28729493460150635,0.3995041323720606
0.64,0.6325,0.68125,0.6125,0.71625,0.5475,0.855,0.83625,0.74875,0.70625,0.7325,0.67125,0.4935058967682647,0.5011793536529331,0.5780211364680655,0.5001413855750699,0.49852555043141333,0.4637336289251606,0.28729493460150635,0.3995041323720606
0.64,0.6325,0.68125,0.6125,0.71625,0.5475,0.855,0.83625,0.74875,0.70625,0.7325,0.67125,0.49342931536223006,0.5010491652626742,0.578044110889876,0.5001211876357743,0.4985659463100048,0.4637336289251606,0.28729493460150635,0.3995041323720606
0.64,0.6325,0.68125,0.6125,0.71625,0.54725,0.855,0.836,0.74875,0.70625,0.7325,0.6709999999999999,0.49327615255016083,0.50099555827845,0.5780134783274621,0.5001413855750699,0.49854574837070903,0.4637336289251606,0.28729493460150635,0.3995041323720606
0.64,0.6325,0.68125,0.6125,0.71625,0.547,0.855,0.83575,0.74875,0.70625,0.7325,0.6707500000000001,0.4932225455659366,0.5010185327002604,0.5779828457650482,0.5002625732108442,0.49854574837070903,0.4637336289251606,0.28729493460150635,0.3995041323720606
0.64,0.6325,0.68125,0.6125,0.71625,0.54675,0.855,0.8355,0.74875,0.70625,0.7325,0.6705,0.4931536223005054,0.5011104303875019,0.5779215806402206,0.5002221773322528,0.4985861442493005,0.4637336289251606,0.28729493460150635,0.3995041323720606
0.64,0.6325,0.68125,0.6125,0.71625,0.5465,0.855,0.83525,0.74875,0.70625,0.7325,0.67025,0.49313830601929853,0.5012253024965538,0.5778603155153929,0.5001817814536613,0.49848515457256576,0.4637336289251606,0.28729493460150635,0.3995041323720606
0.64,0.6325,0.68125,0.6125,0.71625,0.54625,0.855,0.835,0.74875,0.70625,0.7325,0.67,0.4931536223005054,0.5013172001837953,0.577829682952979,0.5001211876357743,0.4984043628153829,0.4637336289251606,0.28729493460150635,0.3995041323720606
0.64,0.6325,0.68125,0.6125,0.71625,0.54625,0.855,0.835,0.74875,0.70625,0.7325,0.67,0.49325317812835046,0.5013401746056058,0.5777760759687548,0.5000605938178871,0.4983437690172396,0.4637336289251606,0.28729493460150635,0.3995041323720606
0.64,0.6325,0.68125,0.6125,0.71625,0.54625,0.855,0.835,0.74875,0.70625,0.7325,0.67,0.4932991269719712,0.5012023280747434,0.5778603155153929,0.4999596041214086,0.4982831751993525,0.4637336289251606,0.28729493460150635,0.3995041323720606
0.64,0.6325,0.68125,0.6125,0.71625,0.54625,0.855,0.835,0.74875,0.70625,0.7325,0.67,0.49325317812835046,0.5011793536529331,0.577929238780824,0.49989901030352146,0.49804079990806016,0.4637336289251606,0.28729493460150635,0.3995041323720606
0.64,0.6325,0.68125,0.6125,0.71625,0.54625,0.855,0.835,0.74875,0.70625,0.7325,0.67,0.4932225455659366,0.5011640373717261,0.5779828457650482,0.4998182185463386,0.49802060194902065,0.4637336289251606,0.28729493460150635,0.3995041323720606
0.64,0.6325,0.68125,0.6125,0.71625,0.5465,0.855,0.835,0.74875,0.70625,0.73225,0.67,0.49325317812835046,0.5010491652626742,0.577929238780824,0.49993940618211286,0.49800040398998113,0.4637336289251606,0.28729493460150635,0.3995041323720606
0.64,0.6325,0.68125,0.6125,0.71625,0.54675,0.855,0.835,0.74875,0.70625,0.732,0.67,0.4931995711441262,0.5010032164190534,0.5778986062184102,0.5000605938178871,0.4979600080719021,0.45870812016007173,0.29222424573168,0.3970354916584367
0.64,0.6325,0.68125,0.6125,0.71625,0.547,0.855,0.835,0.74875,0.70625,0.73175,0.67,0.4933680502374024,0.5010644815438812,0.5778067085311687,0.5000201979392958,0.4979398101128626,0.45870812016007173,0.29222424573168,0.3970354916584367
0.64,0.6325,0.68125,0.6125,0.71625,0.54725,0.855,0.835,0.74875,0.70625,0.7315,0.67,0.49339102465921275,0.5010644815438812,0.5778143666717721,0.49993940618211286,0.49804079982908495,0.45788383864245485,0.2872928422862829,0.39483358261502705
0.64,0.6325,0.68125,0.6125,0.71625,0.5475,0.855,0.835,0.74875,0.70625,0.73125,0.67,0.4933603920967989,0.5010644815438812,0.5778143666717721,0.49991920824281716,0.4981619874648592,0.4570223003505588,0.29123796993690515,0.3994896458229831
0.64,0.6325,0.68125,0.6125,0.71625,0.5475,0.855,0.835,0.74875,0.70625,0.73125,0.67,0.49338336651860926,0.5011640373717261,0.5778220248123755,0.499515249456903,0.4982225813024901,0.4570223003505588,0.29123796993690515,0.3994896458229831
0.64,0.6325,0.68125,0.6125,0.71625,0.5475,0.855,0.835,0.74875,0.70625,0.73125,0.67,0.49345994792464387,0.5013172001837953,0.5779445550620309,0.499030498913806,0.49832357101871244,0.45619270235861503,0.2882791303168192,0.3967938975470031
0.6402500000000001,0.6325,0.68125,0.61275,0.7165,0.5475,0.8554999999999999,0.835,0.74875,0.70675,0.73125,0.67025,0.49325317812835046,0.5012635931995711,0.5780287946086691,0.49864673806718757,0.49830337309916056,0.46708928803071253,0.28828121039628113,0.39851103556932843
0.6405,0.6325,0.68125,0.613,0.71675,0.5475,0.856,0.835,0.74875,0.7072499999999999,0.73125,0.6705,0.4932378618471435,0.5011104303875019,0.5780058201868586,0.49828317515986487,0.49848515455282194,0.4612288544358553,0.2932126138416783,0.3992482776045502
0.64075,0.6325,0.68125,0.6132500000000001,0.7170000000000001,0.5475,0.8565,0.835,0.74875,0.7077500000000001,0.73125,0.6707500000000001,0.49330678511257464,0.5010491652626742,0.5780900597334967,0.49804079990806016,0.4986063421885962,0.4620478091156477,0.2941968095569911,0.39605740281533847
0.6409999999999999,0.6325,0.68125,0.6135,0.7172499999999999,0.5475,0.857,0.835,0.74875,0.70825,0.73125,0.6709999999999999,0.49339102465921275,0.5010032164190534,0.5781972737019452,0.49804079990806016,0.4987477277636661,0.4645898403792319,0.29025377422159226,0.3997332683297858
0.64125,0.6325,0.68125,0.61375,0.7175,0.5475,0.8575,0.835,0.74875,0.70875,0.73125,0.67125,0.49342165722162656,0.5009879001378466,0.5780747434522898,0.49804079990806016,0.4989295092173275,0.4595536883019916,0.301094524353552,0.39533383349550694
0.64125,0.6325,0.68125,0.61375,0.7175,0.5475,0.8575,0.835,0.74875,0.70875,0.73125,0.67125,0.49345994792464387,0.5010874559656915,0.5780594271710828,0.4979398101918378,0.49913148861028456,0.4553790745166473,0.29123588985744314,0.3955731067884405
0.64125,0.6325,0.68125,0.61375,0.7175,0.5475,0.8575,0.835,0.74875,0.70875,0.73125,0.67125,0.4934982386276612,0.5011563792311227,0.5781589829989279,0.49773783079888073,0.4991920824281717,0.45452285269907816,0.2961652132233783,0.39336213262796954
0.64125,0.633,0.6815000000000001,0.614,0.718,0.54875,0.8595,0.83625,0.7505,0.71025,0.732,0.674,0.4934752642058508,0.5011716955123297,0.5780058201868586,0.49739446585059754,0.4994142597604245,0.4587294067843747,0.3030650080994011,0.39360722962812594
0.64125,0.6335000000000001,0.68175,0.61425,0.7184999999999999,0.55,0.8615,0.8375,0.75225,0.71175,0.73275,0.67675,0.4934982386276612,0.5011870117935365,0.5779675294838413,0.4970914967414181,0.49961623915338155,0.45284768656521446,0.3030650080994011,0.39336386705299525
0.64125,0.634,0.682,0.6145,0.7190000000000001,0.55125,0.8634999999999999,0.83875,0.754,0.71325,0.7334999999999999,0.6795,0.49346760606524737,0.501079797825088,0.5780364527492725,0.4968289235503177,0.4998182185463386,0.45286365671519063,0.29911989268454037,0.3950815141081783
0.64125,0.6345000000000001,0.6822499999999999,0.61475,0.7195,0.5525,0.8654999999999999,0.84,0.75575,0.71475,0.73425,0.6822499999999999,0.4934369735028335,0.5009725838566396,0.578044110889876,0.49686931946839674,0.5001211876357743,0.45286365671519063,0.29911989268454037,0.3950815141081783
0.64125,0.635,0.6825,0.615,0.72,0.55375,0.8675,0.84125,0.7575,0.71625,0.735,0.685,0.49338336651860926,0.5010415071220707,0.5779828457650482,0.49697030914513146,0.500343364968027,0.444530399294478,0.30699139056334257,0.3798953744075917
0.64125,0.635,0.6825,0.615,0.72,0.55375,0.8675,0.84125,0.7575,0.71625,0.735,0.685,0.49342931536223006,0.5009036605912085,0.5779598713432379,0.4973136740934147,0.5002423752715485,0.4436954744647096,0.3168458649005274,0.37746074451548034
0.64125,0.635,0.6825,0.615,0.72,0.55375,0.8675,0.84125,0.7575,0.71625,0.735,0.685,0.4933680502374024,0.5008117629039669,0.5778832899372033,0.49761664320259413,0.5000201979392958,0.4436954744647096,0.3168458649005274,0.37746074451548034
0.64125,0.635,0.6825,0.615,0.72,0.55375,0.8675,0.84125,0.7575,0.71625,0.735,0.685,0.49327615255016083,0.5008347373257773,0.5777990503905652,0.49793981023132544,0.49955564533549446,0.4386912626874214,0.31782694049664734,0.3686505863857383
0.64125,0.635,0.6825,0.615,0.72,0.55375,0.8675,0.84125,0.7575,0.71625,0.735,0.685,0.49329146883136776,0.5008806861693981,0.5776994945627202,0.4982831751796087,0.4991920824281717,0.4328521260803649,0.32176373559366017,0.36374550708878534
0.64125,0.635,0.6827500000000001,0.615,0.72,0.5539999999999999,0.8697499999999999,0.8420000000000001,0.7597499999999999,0.7175,0.73625,0.68825,0.4933374176749885,0.5007887884821566,0.5776152550160821,0.4985053525316053,0.49866693602622714,0.4328787395424924,0.3326013778421884,0.359350863971103
0.64125,0.635,0.6829999999999999,0.615,0.72,0.55425,0.872,0.8427500000000001,0.762,0.71875,0.7375,0.6915,0.49330678511257464,0.5008500536069842,0.577630571297289,0.49852555045115715,0.4983235710779439,0.4136435696118577,0.3444096708180035,0.34344922211579115
0.64125,0.635,0.68325,0.615,0.72,0.5545,0.87425,0.8434999999999999,0.76425,0.72,0.73875,0.69475,0.4933603920967989,0.5008194210445703,0.5775616480318578,0.4985659463297486,0.4981821855226177,0.36609555192563686,0.3778713952207629,0.2844818285326687
0.64125,0.635,0.6835,0.615,0.72,0.55475,0.8765000000000001,0.84425,0.7665000000000001,0.72125,0.74,0.698,0.4934829223464543,0.5008194210445703,0.5776535457190994,0.49864673806718757,0.49828317521909626,0.3594055203388359,0.37589049884184234,0.28106293332582416
0.64125,0.635,0.68375,0.615,0.72,0.555,0.87875,0.845,0.76875,0.7225,0.74125,0.70125,0.4934752642058508,0.5006432838106908,0.5776382294378924,0.4985659463100048,0.4982023834816573,0.3594055203388359,0.37589049884184234,0.28106293332582416
0.64125,0.635,0.68375,0.615,0.72,0.555,0.87875,0.845,0.76875,0.7225,0.74125,0.70125,0.49339102465921275,0.5006049931076735,0.5776229131566856,0.49882851952084895,0.49812159172447446,0.3527421022141624,0.37686533419957635,0.27200122167885843
0.64125,0.635,0.68375,0.615,0.72,0.555,0.87875,0.845,0.76875,0.7225,0.74125,0.70125,0.4934063409404197,0.5005513861234492,0.5775693061724614,0.5000403958785914,0.4971318926397533,0.3519231475343701,0.3719297705952552,0.26612976284174633
0.64125,0.63475,0.6835,0.615,0.72,0.55425,0.8785,0.845,0.768,0.721,0.74075,0.69825,0.49335273395619544,0.5006586000918977,0.5776612038597029,0.5013330639540291,0.49589981828348373,0.34354730650155385,0.3738992020656119,0.26417752435815056
0.64125,0.6345000000000001,0.68325,0.615,0.72,0.5535,0.87825,0.845,0.76725,0.7195,0.7402500000000001,0.69525,0.4933757083780058,0.5005513861234492,0.5774774084852198,0.5028277114421676,0.4945263584311194,0.3385484111985926,0.36797631039102346,0.2561038996403814
0.64125,0.63425,0.6829999999999999,0.615,0.72,0.55275,0.878,0.845,0.7665000000000001,0.718,0.7397499999999999,0.6922499999999999,0.4934829223464543,0.5006049931076735,0.5775156991882371,0.5045041404234551,0.49321349239664225,0.33269863127938454,0.36599854636705736,0.2541593012912879
0.64125,0.634,0.6827500000000001,0.615,0.72,0.552,0.87775,0.845,0.76575,0.7165,0.73925,0.6892499999999999,0.4936207688773166,0.500781130341553,0.5776765201409098,0.5013330639540291,0.4907695417616054,0.3301832134779278,0.3600767069679615,0.2507206450885215
0.64125,0.63375,0.6825,0.615,0.72,0.55125,0.8775,0.845,0.765,0.715,0.73875,0.68625,0.4936590595803339,0.5009725838566396,0.5778756317965998,0.4972126843377047,0.48923449845410694,0.3301832134779278,0.3600767069679615,0.2507206450885215
0.64125,0.63375,0.6825,0.615,0.72,0.55125,0.8775,0.845,0.765,0.715,0.73875,0.68625,0.4937203247051616,0.5011180885281054,0.5779828457650482,0.4974348616897013,0.48965865523854823,0.32434939334519813,0.36105882260381233,0.24093927856892763
0.64125,0.63375,0.6825,0.615,0.72,0.55125,0.8775,0.845,0.765,0.715,0.73875,0.68625,0.4935824781742993,0.5012712513401746,0.5780824015928933,0.4964653606232512,0.49042617689229745,0.3545237429235318,0.3512137086242065,0.24754803978254233
0.64075,0.633,0.682,0.6145,0.71925,0.55125,0.8775,0.84425,0.764,0.715,0.738,0.679,0.493544187471282,0.5014244141522438,0.5781436667177209,0.4952130883671735,0.49121389646559865,0.3545237429235318,0.3512137086242065,0.24754803978254233
0.6402500000000001,0.63225,0.6815000000000001,0.614,0.7184999999999999,0.55125,0.8775,0.8434999999999999,0.763,0.715,0.73725,0.67175,0.49349058048705774,0.5014703629958646,0.5779368969214275,0.49945465557978447,0.49341547182908696,0.3753861789015997,0.3364528162666912,0.2700535660381942
0.63975,0.6315,0.6809999999999999,0.6135,0.7177500000000001,0.55125,0.8775,0.8427500000000001,0.762,0.715,0.7365,0.6645,0.4935365293306785,0.501493337417675,0.5779368969214275,0.5024035547169577,0.4954756615977615,0.38209749711270363,0.32660250208843034,0.2769194553750698
0.63925,0.63075,0.6805,0.613,0.7170000000000001,0.55125,0.8775,0.8420000000000001,0.7609999999999999,0.715,0.73575,0.6572499999999999,0.4936896921427477,0.5014703629958646,0.577929238780824,0.5007877195733011,0.4959402142213066,0.4138405486128931,0.32269901273433205,0.30798108904253396
0.63875,0.63,0.68,0.6125,0.71625,0.55125,0.8775,0.84125,0.76,0.715,0.735,0.65,0.4937739316893858,0.501493337417675,0.5781589829989279,0.4999394061426253,0.4964653606824826,0.4138405486128931,0.32269901273433205,0.30798108904253396
0.63875,0.63,0.68,0.6125,0.71625,0.55125,0.8775,0.84125,0.76,0.715,0.735,0.65,0.4937586154081789,0.5014397304334508,0.5783121458109971,0.4993132700244583,0.4972732782740547,0.4305815977298718,0.31877367031012155,0.32069588504955016
0.63875,0.63,0.68,0.6125,0.71625,0.55125,0.8775,0.84125,0.76,0.715,0.735,0.65,0.4937586154081789,0.5014090978710369,0.5786031551539286,0.4978186225560636,0.4980811958261392,0.4305815977298718,0.31877367031012155,0.32069588504955016
0.63875,0.62975,0.68,0.61225,0.7165,0.551,0.87775,0.84125,0.76125,0.71525,0.7332500000000001,0.64725,0.4936590595803339,0.5014473885740542,0.5784882830448768,0.49741466380963706,0.49925267630529024,0.4907599313476312,0.3267378296110739,0.3742414010193344
0.63875,0.6295000000000001,0.68,0.612,0.71675,0.5507500000000001,0.878,0.84125,0.7625,0.7155,0.7315,0.6445000000000001,0.493544187471282,0.5013325164650023,0.5784499923418593,0.4970712988613538,0.5001817814734052,0.4907599313476312,0.3267378296110739,0.3742414010193344
0.63875,0.62925,0.68,0.61175,0.7170000000000001,0.5505,0.87825,0.84125,0.76375,0.71575,0.7297499999999999,0.6417499999999999,0.4935365293306785,0.5012329606371573,0.5783351202328075,0.49692991326654007,0.5006665319967584,0.5191526402165955,0.3277553310693014,0.3962538956872539
0.63875,0.629,0.68,0.6114999999999999,0.7172499999999999,0.55025,0.8785,0.84125,0.765,0.716,0.728,0.639,0.4935977944555062,0.5011640373717261,0.5781819574207383,0.4966067461983211,0.5008079175718283,0.677814639702794,0.3447313122816321,0.5627607868936262
0.63875,0.62875,0.68,0.61125,0.7175,0.55,0.87875,0.84125,0.76625,0.71625,0.72625,0.63625,0.4935212130494716,0.5010185327002604,0.578044110889876,0.4964855585625469,0.5008483134504197,0.8877201454342798,0.25535974380860377,0.8804148710622866
0.63875,0.62875,0.68,0.61125,0.7175,0.55,0.87875,0.84125,0.76625,0.71625,0.72625,0.63625,0.4935824781742993,0.5009113187318119,0.5780900597334967,0.4965663502802421,0.5006463340574626,0.855035704892314,0.22276773733617958,0.8589378650357397
0.63875,0.62875,0.68,0.61125,0.7175,0.55,0.87875,0.84125,0.76625,0.71625,0.72625,0.63625,0.49346760606524737,0.5009342931536223,0.5780747434522898,0.4965461523606902,0.5005453443609841,0.855035704892314,0.22276773733617958,0.8589378650357397
0.63875,0.629,0.6805,0.611,0.7175,0.5495,0.87775,0.84125,0.7667499999999999,0.71575,0.72675,0.6367499999999999,0.493444631643437,0.5008270791851739,0.5779522132026345,0.49695011114660437,0.500343364968027,0.8391242537672792,0.21881844952663332,0.8552700017034806
0.63875,0.62925,0.6809999999999999,0.61075,0.7175,0.5489999999999999,0.8767499999999999,0.84125,0.76725,0.71525,0.72725,0.63725,0.4932608362689539,0.5007581559197427,0.5778756317965998,0.49846495661352624,0.4997576247481953,0.8240530543098372,0.21978287225129586,0.8481802183642655
0.63875,0.6295000000000001,0.6815000000000001,0.6104999999999999,0.7175,0.5479999999999999,0.8752500000000001,0.841,0.768,0.715,0.72725,0.63725,0.4932991269719712,0.500712207076122,0.5777454434063409,0.49977782268749105,0.49905069687284553,0.7914857316555287,0.22171795793900687,0.8205558406724061
0.63875,0.62975,0.682,0.61025,0.7175,0.547,0.87375,0.84075,0.76875,0.71475,0.72725,0.63725,0.49320722928472965,0.5006509419512942,0.5777071527033236,0.5014744496278181,0.4984043628153829,0.7914857316555287,0.22171795793900687,0.8205558406724061
0.63875,0.63,0.6825,0.61,0.7175,0.546,0.87225,0.8405,0.7695000000000001,0.7145,0.72725,0.63725,0.49329146883136776,0.5005743605452596,0.5777454434063409,0.5035750352355964,0.49759644526329844,0.7873270880201605,0.21580026646307338,0.8156601235572823
0.63875,0.63,0.6825,0.61,0.7175,0.5455,0.87175,0.84025,0.7697499999999999,0.71475,0.72675,0.6367499999999999,0.4933603920967989,0.5006356256700873,0.577829682952979,0.5053524538936187,0.49699050710417103,0.7664273952678134,0.20001039550300528,0.8063681975455951
0.6385000000000001,0.6295000000000001,0.6822499999999999,0.60975,0.7172499999999999,0.5457500000000001,0.871,0.84,0.7695000000000001,0.7145,0.72775,0.636,0.4936207688773166,0.5009419512942258,0.5778526573747894,0.5057766105990847,0.49692991326654007,0.7580781469701293,0.20099147109912516,0.8007446160492024
0.63825,0.629,0.682,0.6095,0.7170000000000001,0.5465,0.87075,0.84,0.769,0.7140000000000001,0.72925,0.63575,0.4936973502833512,0.5011716955123297,0.577913922499617,0.5055948291256795,0.49707129882186624,0.7539035228212873,0.19211598004283664,0.7985418854360439
0.638,0.6285000000000001,0.68175,0.60925,0.71675,0.54725,0.8704999999999999,0.84,0.7685,0.7134999999999999,0.73075,0.6355,0.49378158982998926,0.5013325164650023,0.5778067085311687,0.5047465156357722,0.49717228849860096,0.7539035228212873,0.19211598004283664,0.7985418854360439
0.63775,0.628,0.6815000000000001,0.609,0.7165,0.5479999999999999,0.8702500000000001,0.84,0.768,0.713,0.73225,0.63525,0.49378158982998926,0.5014856792770715,0.577645887578496,0.5036356290337397,0.4973742678520704,0.7489046378818237,0.15761076542433677,0.7992879991867851
0.6375,0.6275,0.68125,0.60875,0.71625,0.54875,0.87,0.84,0.7675,0.7125,0.73375,0.635,0.49378158982998926,0.5015699188237096,0.5776612038597029,0.5025045444331802,0.4979802060111978,0.7489046378818237,0.15761076542433677,0.7992879991867851
0.6375,0.6275,0.68125,0.60875,0.71625,0.54875,0.87,0.84,0.7675,0.7125,0.73375,0.635,0.49366671772093734,0.5013861234492265,0.5777071527033236,0.5016966269008394,0.49864673800795617,0.7522869208130011,0.1447984792710354,0.7985581125989963
0.6375,0.6275,0.68125,0.60875,0.71625,0.54875,0.87,0.84,0.7675,0.7125,0.73375,0.635,0.4936820340021443,0.501209986215347,0.5777607596875478,0.501716824859879,0.49933346796375405,0.7523295044251047,0.1477604512460759,0.7946472734946899
0.6375,0.62825,0.68125,0.60975,0.716,0.54925,0.87225,0.84025,0.769,0.7125,0.73425,0.63475,0.4936820340021443,0.5010338489814673,0.5779062643590136,0.5020197939690584,0.5000201979195519,0.8061212703961019,0.20203086233474946,0.792185278058038
0.6375,0.629,0.68125,0.61075,0.71575,0.54975,0.8745,0.8405,0.7705,0.7125,0.7347499999999999,0.6345000000000001,0.49370500842395465,0.5009189768724154,0.5781666411395313,0.5022621692406068,0.5010098969647854,0.813688810424775,0.20893273729023426,0.7934100853798182
0.6375,0.62975,0.68125,0.61175,0.7155,0.55025,0.8767499999999999,0.84075,0.772,0.7125,0.7352500000000001,0.63425,0.493727982845765,0.5009113187318119,0.5781972737019452,0.501979398090467,0.5018582104349489,0.813688810424775,0.20893273729023426,0.7934100853798182
0.6375,0.6305,0.68125,0.61275,0.71525,0.5507500000000001,0.879,0.841,0.7735,0.7125,0.73575,0.634,0.49381222239240313,0.5008883443100015,0.5782432225455659,0.5015552413652571,0.5030094930142919,0.9176292101981502,0.3056184157608257,0.8051584399581818
0.6375,0.63125,0.68125,0.61375,0.715,0.55125,0.88125,0.84125,0.775,0.7125,0.73625,0.63375,0.49385051309542044,0.5009802419972431,0.5783810690764283,0.5002423752518047,0.5050898807222621,0.926010378068791,0.3105518992856848,0.8066245814597236
0.6375,0.63125,0.68125,0.61375,0.715,0.55125,0.88125,0.84125,0.775,0.7125,0.73625,0.63375,0.49388880379843775,0.5010721396844846,0.5785189156072905,0.49892950913835227,0.5071702684302324,0.926010378068791,0.3105518992856848,0.8066245814597236
0.6375,0.63125,0.68125,0.61375,0.715,0.55125,0.88125,0.84125,0.775,0.7125,0.73625,0.63375,0.4938964619390412,0.5011640373717261,0.5786644202787563,0.4972530801570647,0.509715208939442,0.9385501999382979,0.32534298950268314,0.8068665577326035
0.63725,0.6305,0.6815000000000001,0.6145,0.715,0.551,0.88125,0.8415,0.77725,0.7142499999999999,0.73725,0.64075,0.4947694899678358,0.5016005513861235,0.5817200183795375,0.49521308834742966,0.5199959599422381,0.9402519795342892,0.33323531264762823,0.8097958375965479
0.637,0.62975,0.68175,0.61525,0.715,0.5507500000000001,0.88125,0.84175,0.7795000000000001,0.716,0.7382500000000001,0.64775,0.49720477867973656,0.5054602542502681,0.5866824934905805,0.49666734003595203,0.5342153088905153,0.9477769359508587,0.34802536282489566,0.81298317855279
0.6367499999999999,0.629,0.682,0.616,0.715,0.5505,0.88125,0.8420000000000001,0.78175,0.7177500000000001,0.73925,0.6547499999999999,0.4982233113799969,0.5057282891713892,0.5982998927860316,0.49315289871696183,0.5562512598131484,0.9477769359508587,0.34802536282489566,0.81298317855279
0.6365,0.62825,0.6822499999999999,0.61675,0.715,0.55025,0.88125,0.8422499999999999,0.784,0.7195,0.7402500000000001,0.66175,0.49760300199111657,0.5068387195588911,0.6082784499923418,0.49404160808546055,0.5895778608751823,0.9662038048773501,0.3549366103737209,0.8196056898424118
0.63825,0.62875,0.68375,0.61875,0.7170000000000001,0.5507500000000001,0.8875,0.84575,0.7929999999999999,0.73175,0.7490000000000001,0.6905,0.49699035074283965,0.5078878848215653,0.6181344769489968,0.49535447415942535,0.6221369400465411,0.9821046023267359,0.3647983772247841,0.8215713240903899
0.6402500000000001,0.63,0.685,0.62,0.7190000000000001,0.5515,0.89375,0.8490000000000001,0.79975,0.74225,0.7567499999999999,0.7122499999999999,0.4963240925103385,0.5076887731658754,0.6232960637157299,0.4960210061364399,0.6580892703344203,0.9854496181201363,0.3726865402108052,0.8218129723542552
0.64225,0.63125,0.68625,0.62125,0.721,0.55225,0.9,0.85225,0.8065000000000001,0.75275,0.7645000000000001,0.7340000000000001,0.4928702710981774,0.5084392709450145,0.630303262367897,0.4926883460934167,0.6959806046900936,0.9955166058002901,0.3717033722994619,0.821583576464858
0.64425,0.6325,0.6875,0.6225,0.723,0.5529999999999999,0.90625,0.8554999999999999,0.81325,0.76325,0.77225,0.75575,0.49309235717567773,0.5114565783427784,0.6299816204625517,0.49642496476440356,0.7297515602981701,1.0,0.4465097349493005,0.7378500649132933
0.64625,0.63375,0.68875,0.62375,0.725,0.55375,0.9125,0.85875,0.82,0.77375,0.78,0.7775,0.49406494103231735,0.5149640067391638,0.6307857252259151,0.4915976572924733,0.7631589517748076,1.0,0.4465097349493005,0.7378500649132933
0.64625,0.63375,0.68875,0.62375,0.725,0.55375,0.9125,0.85875,0.82,0.77375,0.78,0.7775,0.4976719252565477,0.5183565630264971,0.6315055904426405,0.48184205239546457,0.7999797924454679,0.9774677039988976,0.451407832651783,0.7185442139906056
0.64625,0.63375,0.68875,0.62375,0.725,0.55375,0.9125,0.85875,0.82,0.77375,0.78,0.7775,0.49218103844386585,0.5239929545106448,0.632891713891867,0.4707129878237859,0.8260957316469106,0.8880670531567323,0.44142532330583306,0.638632480907013
0.64725,0.63475,0.6895,0.6245,0.72625,0.55775,0.91525,0.86425,0.82075,0.77575,0.7825,0.78075,0.4883060192985143,0.5283504365140144,0.6274544340634094,0.4791961222490078,0.8458695162115334,0.8395776360652373,0.4265811543552697,0.6032003885978496
0.64825,0.63575,0.69025,0.62525,0.7275,0.56175,0.9179999999999999,0.8697499999999999,0.8215,0.77775,0.785,0.784,0.4794838413233267,0.5318042579261755,0.6178128350436514,0.4886689556010004,0.8568975894479971,0.8395776360652373,0.4265811543552697,0.6032003885978496
0.64925,0.6367499999999999,0.691,0.626,0.72875,0.56575,0.9207500000000001,0.8752500000000001,0.8222499999999999,0.7797499999999999,0.7875,0.7872499999999999,0.4664879767192526,0.5297595343850513,0.6081635778832899,0.5032922638880184,0.8583922358107384,0.8395776360652373,0.4265811543552697,0.6032003885978496
0.6502500000000001,0.63775,0.69175,0.6267499999999999,0.73,0.56975,0.9235,0.88075,0.823,0.78175,0.79,0.7905,0.44891254403430847,0.5272629805483229,0.5997319650788788,0.5199555641031344,0.8491213807855371,0.6631480311960765,0.3623126210889198,0.4848788849921486
0.65125,0.63875,0.6925,0.6275,0.73125,0.57375,0.92625,0.88625,0.82375,0.78375,0.7925,0.79375,0.44473885740542196,0.5219482309695206,0.5902971358554143,0.5390628146373861,0.8164613099630623,0.6631480311960765,0.3623126210889198,0.4848788849921486
0.65125,0.63875,0.6925,0.6275,0.73125,0.57375,0.92625,0.88625,0.82375,0.78375,0.7925,0.79375,0.44177515699188236,0.512628273855108,0.5814979323020371,0.5396283570166411,0.7721874248155643,0.6037513747568348,0.33662248957198043,0.45017610216057363
0.65125,0.63875,0.6925,0.6275,0.73125,0.57375,0.92625,0.88625,0.82375,0.78375,0.7925,0.79375,0.44032776841782817,0.5051539286261296,0.5787792923878082,0.5359927280223891,0.7154110187781658,0.5034221979426198,0.2891977423502722,0.3851335592366487
0.65125,0.63875,0.6925,0.6275,0.73125,0.57375,0.92625,0.88625,0.82375,0.78375,0.7925,0.79375,0.4411318731811916,0.5007887884821566,0.5768647572369429,0.5286204799622738,0.6511411758997365,0.2626609115676626,0.40828057854155514,0.2135704245411393
0.65125,0.63875,0.6925,0.6275,0.73125,0.57375,0.92625,0.88625,0.82375,0.78375,0.7925,0.79375,0.4443176596722316,0.4966074437126666,0.570975647112881,0.5212078361420301,0.5925065606317615,0.24264937056933922,0.42995273068365714,0.19005434119157316
0.652,0.64,0.6927500000000001,0.6275,0.7325,0.5745,0.9272499999999999,0.887,0.82325,0.784,0.7915000000000001,0.794,0.4441568387195589,0.4934369735028335,0.563922499617093,0.5102403552426675,0.55582710397641,0.2251000204482174,0.4575373863387991,0.16875102212714777
0.65275,0.64125,0.693,0.6275,0.73375,0.57525,0.92825,0.88775,0.8227500000000001,0.78425,0.7905,0.79425,0.4431383060192985,0.4909940266503293,0.5586536988819115,0.49755604912803747,0.5321753172783183,0.21849516644912134,0.4752654508700097,0.14402288203264094
0.6535,0.6425,0.69325,0.6275,0.735,0.5760000000000001,0.92925,0.8885,0.8222499999999999,0.7845,0.7895,0.7945,0.44501455046714655,0.48800735181497934,0.550298667483535,0.48883053935229176,0.5302161170284281,0.2177347758949065,0.4821537930732302,0.12344448300441407
0.65425,0.64375,0.6934999999999999,0.6275,0.73625,0.57675,0.93025,0.88925,0.82175,0.78475,0.7885,0.79475,0.45201409097871037,0.4851278909480778,0.539860621841017,0.4837608564903501,0.5395273669450302,0.20438132618343197,0.4910105511785993,0.10141700358504571
0.655,0.645,0.69375,0.6275,0.7375,0.5775,0.93125,0.89,0.82125,0.785,0.7875,0.795,0.4598024199724307,0.482508806861694,0.531429009036606,0.48141789553204806,0.5527772148071134,0.2229466099853814,0.525499137397165,0.0632202501625733
0.6547499999999999,0.645,0.6940000000000001,0.6267499999999999,0.73775,0.578,0.93125,0.8905,0.82175,0.7855,0.7879999999999999,0.7955,0.4668249349058049,0.48023433910246593,0.5257313524276306,0.48258937581376093,0.5680266584422897,0.20879553367240833,0.486046869794257,0.040190972418309906
0.6545000000000001,0.645,0.6942499999999999,0.626,0.738,0.5785,0.93125,0.8909999999999999,0.8222499999999999,0.7859999999999999,0.7885,0.7959999999999999,0.4739087149640067,0.4781513248583244,0.5197733190381375,0.48454857606365126,0.5820036323559441,0.1887573792119574,0.38054088355192695,0.007611941199123598
0.65425,0.645,0.6945,0.62525,0.7382500000000001,0.579,0.93125,0.8915000000000001,0.8227500000000001,0.7865000000000001,0.789,0.7965000000000001,0.480716801960484,0.47724000612651246,0.5149563485985603,0.4840436276010024,0.5905675590911756,0.18959762051605267,0.3805367111572415,0.004172830115931019
0.654,0.645,0.69475,0.6245,0.7384999999999999,0.5795,0.93125,0.892,0.82325,0.787,0.7895,0.797,0.48611579108592434,0.47732424567315057,0.5116097411548476,0.4823470006211877,0.5936174479445713,0.18959762051605267,0.3805367111572415,0.004172830115931019
0.65375,0.645,0.695,0.62375,0.73875,0.58,0.93125,0.8925,0.82375,0.7875,0.79,0.7975,0.4912314290090366,0.4776535457190994,0.5084852197886354,0.48036760260969597,0.5936174479445713,0.19379353128919768,0.3854691668781312,0.00466414584518563
0.65375,0.645,0.695,0.62375,0.73875,0.58,0.93125,0.8925,0.82375,0.7875,0.79,0.7975,0.4958875784959412,0.47838106907642824,0.5057972124368203,0.4785699860321218,0.5917188425589901,0.18877334936193346,0.37955355548165964,0.0031929186567041207
0.65375,0.645,0.695,0.62375,0.73875,0.58,0.93125,0.8925,0.82375,0.7875,0.79,0.7975,0.5003216419053453,0.4795068157451371,0.503767805176903,0.47683296337115383,0.5878206407685138,0.1870822130780937,0.38054296363138895,0.006622379776573341
0.65375,0.645,0.695,0.62375,0.73875,0.58,0.93125,0.8925,0.82375,0.7875,0.79,0.7975,0.5041124215040588,0.4808240159289325,0.5019375095726758,0.4754797016555234,0.5813976963488922,0.1870822130780937,0.38054296363138895,0.006622379776573341
0.65375,0.645,0.695,0.62375,0.73875,0.58,0.93125,0.8925,0.82375,0.7875,0.79,0.7975,0.507351814979323,0.4825777301271251,0.5003446163271558,0.4758028686842547,0.5714603104523298,0.18374784059684462,0.3844849589270568,0.004172282402765024
0.654,0.6452500000000001,0.695,0.624,0.73925,0.5802499999999999,0.932,0.89275,0.8240000000000001,0.7877500000000001,0.7895,0.7975,0.5093199571144126,0.4846454280900597,0.4996630418134477,0.4801050297344966,0.5556049282828937,0.18959762051605267,0.377584124011303,0.004914914925756228
0.65425,0.6455,0.695,0.62425,0.7397499999999999,0.5805,0.9327500000000001,0.893,0.8242499999999999,0.7879999999999999,0.789,0.7975,0.5101010874559657,0.48650635625670086,0.49941032317353345,0.48677034982054296,0.5358513432173277,0.18959762051605267,0.377584124011303,0.004914914925756228
0.6545000000000001,0.64575,0.695,0.6245,0.7402500000000001,0.58075,0.9335,0.89325,0.8245,0.78825,0.7885,0.7975,0.5095956501761373,0.4879077959871343,0.499701332516465,0.49476873370266794,0.5136740057521779,0.18457743858878842,0.3765999282959901,0.0036875794590234146
0.6547499999999999,0.6459999999999999,0.695,0.62475,0.74075,0.581,0.93425,0.8935,0.82475,0.7885,0.7879999999999999,0.7975,0.5074437126665645,0.48883443100015317,0.5010415071220707,0.5025651382313234,0.49064835471814555,0.18456679527663694,0.37955772787634523,0.004663143251593682
0.655,0.64625,0.695,0.625,0.74125,0.58125,0.935,0.89375,0.825,0.78875,0.7875,0.7975,0.5042349517537142,0.4896002450604993,0.5032164190534538,0.508705311935169,0.4698242789686262,0.19043254534582107,0.3765988760204977,0.0039235587368991525
0.655,0.64625,0.695,0.625,0.74125,0.58125,0.935,0.89375,0.825,0.78875,0.7875,0.7975,0.50039822331138,0.4903813754020524,0.5059656915300965,0.5107856996233955,0.45217127990571493,0.18792245438218896,0.3844849589270568,0.005154004100422184
0.655,0.64625,0.695,0.625,0.74125,0.58125,0.935,0.89375,0.825,0.78875,0.7875,0.7975,0.4957880226680962,0.4918747128197274,0.5099249502220861,0.5104221365976098,0.43518481281981813,0.1862419614105007,0.37462528439121706,0.0029480166053016763
0.655,0.64625,0.695,0.625,0.74125,0.58125,0.935,0.89375,0.825,0.78875,0.7875,0.7975,0.49100168479093276,0.4940189921886966,0.5146806555368356,0.5096546150228358,0.4187032940386198,0.18623663457267606,0.38054504371085096,0.00466463940591996
0.655,0.64625,0.695,0.6255,0.74125,0.5815,0.9355,0.89425,0.82625,0.78925,0.7879999999999999,0.7977500000000001,0.48708837494256396,0.4961402971358554,0.5188237096033084,0.5090284788849251,0.40581700841256974,0.18623663457267606,0.38054504371085096,0.00466463940591996
0.655,0.64625,0.695,0.626,0.74125,0.58175,0.9359999999999999,0.8947499999999999,0.8275,0.78975,0.7885,0.7979999999999999,0.4822637463623832,0.4986291928319804,0.5242380150099556,0.5106241161090298,0.3878812381600309,0.18205670431300489,0.3785735199252708,0.002458197030373499
0.655,0.64625,0.695,0.6265,0.74125,0.5820000000000001,0.9365000000000001,0.8952500000000001,0.82875,0.79025,0.789,0.79825,0.47707152703323635,0.5007504977791393,0.5304028181957421,0.5131892544193285,0.3685316125911564,0.18793842453216503,0.3844849589270568,0.005407770131282543
0.655,0.64625,0.695,0.627,0.74125,0.58225,0.937,0.89575,0.83,0.7907500000000001,0.7895,0.7985,0.4726910706080564,0.5021136468065553,0.5356792770715271,0.5149868711548532,0.3487982267087464,0.18793842453216503,0.3844849589270568,0.005407770131282543
0.655,0.64625,0.695,0.6275,0.74125,0.5825,0.9375,0.89625,0.83125,0.79125,0.79,0.79875,0.46873947005667027,0.503086230663195,0.5412390871496401,0.5146839020456737,0.3299737473641221,0.1828809754671241,0.38054400367111996,0.003928642876626691
0.655,0.64625,0.695,0.6275,0.74125,0.5825,0.9375,0.89625,0.83125,0.79125,0.79,0.79875,0.46448920202174915,0.5047710215959565,0.5478710369122377,0.513573015364666,0.30919007029681556,0.1803762009778188,0.37561364026545385,0.0022120324537070217
0.655,0.64625,0.695,0.6275,0.74125,0.5825,0.9375,0.89625,0.83125,0.79125,0.79,0.79875,0.4618241690917445,0.5063332822790626,0.5534538214121612,0.511068470813023,0.29388003495633996,0.1803762009778188,0.37561364026545385,0.0022120324537070217
0.655,0.64625,0.695,0.6275,0.74125,0.5825,0.9375,0.89625,0.83125,0.79125,0.79,0.79875,0.46007045489355186,0.5085388267728596,0.5589983152090673,0.510502928433768,0.2825085925069296,0.18458276542661306,0.377585164051034,0.004909064915923738
0.655,0.64625,0.695,0.6275,0.74125,0.5825,0.9375,0.89625,0.83125,0.79125,0.79,0.79875,0.4586919895849288,0.5109511410629499,0.5648874253331291,0.5143809327785438,0.2752575325959278,0.18623663457267606,0.38054296363138895,0.0029462605193033135
0.6552500000000001,0.6467499999999999,0.69575,0.6275,0.74175,0.58225,0.9372499999999999,0.8959999999999999,0.83075,0.7909999999999999,0.79,0.79875,0.4570990963394088,0.5133404809312299,0.5702174911931384,0.522823671680563,0.2721066552504261,0.1854176902563815,0.3815281993864328,0.005638700855314447
0.6555,0.64725,0.6965,0.6275,0.74225,0.5820000000000001,0.937,0.89575,0.83025,0.7907500000000001,0.79,0.79875,0.45529943329759537,0.5151478021136469,0.5756164803185786,0.5342557053614211,0.27356090672176653,0.18540172010640538,0.3815281993864328,0.004907530081289006
0.65575,0.64775,0.6972499999999999,0.6275,0.74275,0.58175,0.93675,0.8955,0.82975,0.7905,0.79,0.79875,0.45323173533466077,0.5166334813907183,0.5813217950681575,0.5449606134645595,0.2790547433670901,0.19043787218364572,0.3785724798855398,0.005402175411485011
0.6559999999999999,0.64825,0.698,0.6275,0.7432500000000001,0.5815,0.9365000000000001,0.8952500000000001,0.8292499999999999,0.79025,0.79,0.79875,0.4569076428243223,0.5189462398529637,0.5994715882983612,0.5171076547611586,0.2425772668549605,0.1887520523741328,0.3815302794658948,0.00540246783461597
0.65625,0.64875,0.69875,0.6275,0.74375,0.58125,0.93625,0.895,0.82875,0.79,0.79,0.79875,0.46334813907183336,0.5026573747894011,0.6112268341246745,0.4898202384370129,0.21282570150237456,0.18540172010640538,0.377586204090765,0.004909556929445693
0.65625,0.64875,0.69875,0.6275,0.74375,0.58125,0.93625,0.895,0.82875,0.79,0.79,0.79875,0.4639684484607137,0.49384285495481695,0.6153545719099403,0.4910321142419286,0.18315492593259025,0.18958697720390116,0.37462632443094807,0.004175335052698826
0.65625,0.64875,0.69875,0.6275,0.74375,0.58125,0.93625,0.895,0.82875,0.79,0.79,0.79875,0.463325164650023,0.48569459335273396,0.6172001837953744,0.47564128438013653,0.13956776657494585,0.18206734762515636,0.3844849589270568,0.005156996409074974
0.65625,0.64875,0.69875,0.6275,0.74375,0.58125,0.93625,0.895,0.82875,0.79,0.79,0.79875,0.4776765201409098,0.47935365293306786,0.6277990503905652,0.4665522114206548,0.09006261915785341,0.18541236341855685,0.3766009683357212,0.004665918950519657
0.65575,0.6475,0.69825,0.627,0.7432500000000001,0.58075,0.9359999999999999,0.8947499999999999,0.8290000000000001,0.7907500000000001,0.79025,0.79975,0.4852733956195436,0.4803951600551386,0.6277071527033237,0.49495051474170926,0.10244395663715561,0.18541236341855685,0.3766009683357212,0.004665918950519657
0.6552500000000001,0.64625,0.6977500000000001,0.6265,0.74275,0.5802499999999999,0.9357500000000001,0.8945000000000001,0.8292499999999999,0.7915000000000001,0.7905,0.8007500000000001,0.49107060805636393,0.49289324551998775,0.6326543115331598,0.5138355883188407,0.12017774864187847,0.1879064842322129,0.37265792076456083,0.005402175411485011
0.6547499999999999,0.645,0.6972499999999999,0.626,0.74225,0.57975,0.9355,0.89425,0.8295,0.7922499999999999,0.7907500000000001,0.80175,0.5014244141522438,0.49670699954051156,0.6425945780364528,0.4910321148737306,0.15172693215154348,0.19294796314727777,0.37955563556112165,0.004905464552823942
0.65425,0.64375,0.69675,0.6255,0.74175,0.5792499999999999,0.93525,0.894,0.82975,0.7929999999999999,0.7909999999999999,0.8027500000000001,0.5103538060958799,0.5013172001837953,0.6375095726757543,0.4979398103103007,0.23221572448985778,0.19379353128919768,0.38054296363138895,0.004909595609754069
0.65375,0.6425,0.69625,0.625,0.74125,0.57875,0.935,0.89375,0.83,0.79375,0.79125,0.80375,0.5028105376014703,0.5018226374636239,0.623051003216419,0.4930317111206752,0.312280354673414,0.1879064842322129,0.38152923942616385,0.0048983674898507076
0.65375,0.6425,0.69625,0.625,0.74125,0.57875,0.935,0.89375,0.83,0.79375,0.79125,0.80375,0.4972966763669781,0.49640833205697654,0.6047174146117322,0.48654817246854637,0.37275298488527486,0.19210239500535795,0.3835018032514749,0.005401664831414939
0.65375,0.6425,0.69625,0.625,0.74125,0.57875,0.935,0.89375,0.83,0.79375,0.79125,0.80375,0.49188237096033083,0.49561954357482,0.5900903660591208,0.48745707963813417,0.42330842538266983,0.1895923040417258,0.3854764471562481,0.0046664341722267
0.65375,0.6425,0.69625,0.625,0.74125,0.57875,0.935,0.89375,0.83,0.79375,0.79125,0.80375,0.49006739163731045,0.4963623832133558,0.5770026037678052,0.5024237527154849,0.4624318329889591,0.1895923040417258,0.3854764471562481,0.0046664341722267
0.6517499999999999,0.6402500000000001,0.69475,0.6235,0.73875,0.5745,0.92875,0.8865000000000001,0.8255,0.7835,0.78525,0.79175,0.4909174452442947,0.49641599019758004,0.5793153622300505,0.5043021606553657,0.46742072385679223,0.18540172010640538,0.3795587679160761,0.0031931739467390787
0.6497499999999999,0.638,0.69325,0.622,0.73625,0.57025,0.9225,0.87925,0.821,0.77325,0.77925,0.7797499999999999,0.4926558431612804,0.49937969061111964,0.5800735181497932,0.5104221362817088,0.47594425427906845,0.18865090463645168,0.18039983458718692,0.030196624384963785
0.64775,0.63575,0.69175,0.6204999999999999,0.73375,0.5660000000000001,0.91625,0.872,0.8165,0.763,0.77325,0.76775,0.4939730433450758,0.4992801347832746,0.5812222392403125,0.5147242974109261,0.48485154548873166,0.19534093622325277,0.20110652396489526,0.03312692386183579
0.64575,0.6335000000000001,0.69025,0.619,0.73125,0.56175,0.91,0.8647499999999999,0.812,0.75275,0.76725,0.75575,0.4945167713279216,0.5011716955123297,0.5792004901209986,0.5159159758491166,0.4913754799799643,0.17605252900486518,0.21293981460153874,0.03263240385583886
0.64375,0.63125,0.68875,0.6175,0.72875,0.5575,0.90375,0.8575,0.8075,0.7425,0.76125,0.74375,0.49330678511257464,0.5023816817276765,0.5774620922040129,0.5129670768698937,0.4935164615058217,0.17605252900486518,0.21293981460153874,0.03263240385583886
0.64375,0.63125,0.68875,0.6175,0.72875,0.5575,0.90375,0.8575,0.8075,0.7425,0.76125,0.74375,0.4927017920049012,0.5025654771021596,0.5767192525654771,0.5075338314560179,0.49188042844261315,0.20954527055097408,0.26914843149711626,0.044373952247147956
0.643,0.6305,0.688,0.617,0.72725,0.556,0.9009999999999999,0.85575,0.805,0.7382500000000001,0.75825,0.732,0.4929851432072293,0.5018915607290549,0.5768800735181498,0.5035346394359803,0.4902443953794047,0.20954527055097408,0.26914843149711626,0.044373952247147956
0.64225,0.62975,0.6872499999999999,0.6164999999999999,0.72575,0.5545,0.89825,0.8540000000000001,0.8025,0.7340000000000001,0.7552500000000001,0.7202500000000001,0.4932225455659366,0.5011870117935365,0.5775003829070302,0.5025651382708111,0.4893152901323145,0.2162565991255758,0.34309656559670676,0.045571592067566155
0.6415000000000001,0.629,0.6865000000000001,0.616,0.72425,0.5529999999999999,0.8955,0.85225,0.8,0.7297499999999999,0.75225,0.7084999999999999,0.49342165722162656,0.5007734722009496,0.5780517690304794,0.5029085032190943,0.48874974775305946,0.29198436616625173,0.5394413227142095,0.25601749711483573
0.64075,0.62825,0.6857500000000001,0.6154999999999999,0.72275,0.5515,0.89275,0.8504999999999999,0.7975,0.7254999999999999,0.74925,0.69675,0.49345994792464387,0.5005284117016389,0.5786337877163424,0.5038982022643278,0.4893152901323145,0.2834381595945277,0.4921487706601904,0.30144573841250133
0.64,0.6275,0.685,0.615,0.72125,0.55,0.89,0.84875,0.795,0.72125,0.74625,0.685,0.4935212130494716,0.5008117629039669,0.5788022668096187,0.5055342353275363,0.4905069684915298,0.2834381595945277,0.4921487706601904,0.30144573841250133
0.64,0.6275,0.685,0.615,0.72125,0.55,0.89,0.84875,0.795,0.72125,0.74625,0.685,0.49363608515852353,0.5011410629499158,0.5788482156532394,0.5064229446565474,0.49220359539236924,0.2722221605594109,0.6016956538587241,0.45403300544293823
0.64,0.6275,0.685,0.615,0.72125,0.55,0.89,0.84875,0.795,0.72125,0.74625,0.685,0.49356716189309235,0.5014320722928473,0.5785495481697044,0.5058776003153072,0.4935972532630045,0.2722221605594109,0.6016956538587241,0.45403300544293823
0.63975,0.62725,0.685,0.6145,0.72,0.54925,0.88825,0.8482500000000001,0.7915000000000001,0.721,0.745,0.6777500000000001,0.4933757083780058,0.5015852351049165,0.5783198039516005,0.5051504745006616,0.49523328636570063,0.3115700192260501,0.6707540228094416,0.487991331588181
0.6395000000000001,0.627,0.685,0.614,0.71875,0.5485,0.8865000000000001,0.84775,0.7879999999999999,0.72075,0.74375,0.6705,0.4934752642058508,0.5019375095726758,0.5780211364680655,0.5040799836982454,0.49636437096626024,0.532436882490341,0.5821105677984342,0.5523781102255727
0.63925,0.6267499999999999,0.685,0.6135,0.7175,0.54775,0.8847499999999999,0.84725,0.7845,0.7204999999999999,0.7425,0.66325,0.4934829223464543,0.5018073211824169,0.5779368969214275,0.5026257320689543,0.4972126844561676,0.532436882490341,0.5821105677984342,0.5523781102255727
0.639,0.6265,0.685,0.613,0.71625,0.547,0.883,0.84675,0.7809999999999999,0.7202500000000001,0.74125,0.6559999999999999,0.4933680502374024,0.5017460560575893,0.5779675294838413,0.5016562309827604,0.4975560494044508,0.6035650494314486,0.5397348586335784,0.5612216865945036
0.63875,0.62625,0.685,0.6125,0.715,0.54625,0.88125,0.84625,0.7775,0.72,0.74,0.64875,0.4933757083780058,0.5017230816357788,0.5780287946086691,0.5010906886824806,0.49789941435273405,0.7887955023746454,0.358510101239058,0.7768049755873101
0.63875,0.62625,0.685,0.6125,0.715,0.54625,0.88125,0.84625,0.7775,0.72,0.74,0.64875,0.4934063409404197,0.5016847909327615,0.5779445550620309,0.500565542280536,0.49767723704022504,0.7895292794667326,0.3398051212706515,0.8039109706173547
0.639,0.62625,0.685,0.6125,0.7155,0.54625,0.8815000000000001,0.84575,0.7767499999999999,0.71875,0.7384999999999999,0.6475,0.49345228978404043,0.50159289324552,0.5779675294838413,0.5007473237539412,0.49789941435273405,0.9214790837826506,0.17723433295467322,0.9181189843417469
0.63925,0.62625,0.685,0.6125,0.716,0.54625,0.8817499999999999,0.8452500000000001,0.7759999999999999,0.7175,0.737,0.64625,0.49345994792464387,0.5015852351049165,0.577913922499617,0.5010502928631206,0.4981013937456911,0.8955485554273903,0.18018693233637334,0.9127447237351809
0.63925,0.626,0.68475,0.612,0.71625,0.546,0.88125,0.8447499999999999,0.775,0.71575,0.735,0.6459999999999999,0.4935135549088681,0.501577576964313,0.577913922499617,0.5016360330829523,0.49787921639369453,0.8963834802571586,0.18511209554338448,0.9061377882321194
0.63925,0.62575,0.6845,0.6114999999999999,0.7165,0.5457500000000001,0.88075,0.84425,0.774,0.7140000000000001,0.733,0.64575,0.4934982386276612,0.5016694746515546,0.5778832899372033,0.5021611795046407,0.497636841122146,0.8838383315498272,0.18116696789276218,0.900261514470226
0.63925,0.6255,0.68425,0.611,0.71675,0.5455,0.8802500000000001,0.84375,0.773,0.7122499999999999,0.731,0.6455,0.4935824781742993,0.5019145351508654,0.577929238780824,0.502827711501399,0.49771763287932885,0.8838383315498272,0.18116696789276218,0.900261514470226
0.639,0.62525,0.684,0.6104999999999999,0.7165,0.54525,0.8795000000000001,0.84375,0.77275,0.71175,0.7304999999999999,0.6465000000000001,0.49356716189309235,0.5018762444478481,0.577829682952979,0.5029085032585819,0.49737426789155803,0.8579450703323437,0.1939594688196517,0.8772884531388838
0.63875,0.625,0.68375,0.61,0.71625,0.545,0.87875,0.84375,0.7725,0.71125,0.73,0.6475,0.4935595037524889,0.5019221932914688,0.5777913922499617,0.5029690970962128,0.497152090579049,0.8579450703323437,0.1939594688196517,0.8772884531388838
0.63875,0.625,0.68375,0.61,0.71625,0.545,0.87875,0.84375,0.7725,0.71125,0.73,0.6475,0.4936590595803339,0.5018456118854342,0.577645887578496,0.5031710765286576,0.4975358514454113,0.8178687510479439,0.22252829571858343,0.8454824478817657
0.63875,0.625,0.68375,0.61,0.71625,0.545,0.87875,0.84375,0.7725,0.71125,0.73,0.6475,0.4937969061111962,0.5017996630418134,0.5776535457190994,0.5035346393964927,0.4981417896045387,0.8178687510479439,0.22252829571858343,0.8454824478817657
0.6385000000000001,0.62475,0.68375,0.60975,0.716,0.5447500000000001,0.87875,0.8434999999999999,0.7725,0.711,0.7304999999999999,0.64725,0.49381988053300657,0.501707765354572,0.5776688620003063,0.5038174105861202,0.49884871746014464,0.8003247174011491,0.22350937131470336,0.8396183831723947
0.63825,0.6245,0.68375,0.6095,0.71575,0.5445,0.87875,0.84325,0.7725,0.71075,0.731,0.647,0.49378924797059276,0.5017843467606066,0.5777990503905652,0.503837608505672,0.49977782268749105,0.77443678302149,0.23533432939773735,0.8222284638486875
0.638,0.62425,0.68375,0.60925,0.7155,0.54425,0.87875,0.843,0.7725,0.7105,0.7315,0.6467499999999999,0.49378158982998926,0.50179200490121,0.5778067085311687,0.5037366187894498,0.5005655423002798,0.7702781393861218,0.2392752846536742,0.8148911234417058
0.63775,0.624,0.68375,0.609,0.71525,0.544,0.87875,0.8427500000000001,0.7725,0.71025,0.732,0.6465000000000001,0.4936896921427477,0.5018456118854342,0.577829682952979,0.503534639357005,0.5012522722363338,0.754398628561039,0.24222580395591228,0.8087738032815446
0.6375,0.62375,0.68375,0.60875,0.715,0.54375,0.87875,0.8425,0.7725,0.71,0.7325,0.64625,0.4935977944555062,0.5017460560575893,0.5777913922499617,0.503635629112715,0.5018582104349489,0.7368865352141962,0.22939895724637713,0.7921550888509891
0.6375,0.62375,0.68375,0.60875,0.715,0.54375,0.87875,0.8425,0.7725,0.71,0.7325,0.64625,0.4935518456118854,0.5017154234951754,0.5777684178281514,0.504019389900102,0.5024035547761893,0.7488789156804996,0.19194318661835452,0.7489368918391821
0.6375,0.62375,0.68375,0.60875,0.715,0.54375,0.87875,0.8425,0.7725,0.71,0.7325,0.64625,0.4935058967682647,0.501776688620003,0.5778143666717721,0.5043425569288333,0.5029287011781338,0.7488789156804996,0.19194318661835452,0.7489368918391821
0.6375,0.62375,0.68375,0.60875,0.715,0.54375,0.87875,0.8425,0.7725,0.71,0.7325,0.64625,0.49345994792464387,0.5018149793230203,0.5779675294838413,0.5047061198361561,0.5033932537621912,0.7539097409199154,0.19786191813401902,0.7496754474576747
0.637,0.6232500000000001,0.68325,0.608,0.7142499999999999,0.5425,0.879,0.8420000000000001,0.77325,0.71025,0.7334999999999999,0.647,0.49364374329912697,0.5019375095726758,0.5780747434522898,0.5040193899198459,0.5049686929482812,0.746379468029019,0.21167296055886692,0.7550309109816025
0.6365,0.62275,0.6827500000000001,0.6072500000000001,0.7134999999999999,0.54125,0.87925,0.8415,0.774,0.7105,0.7345,0.64775,0.4936590595803339,0.5019604839944861,0.5786491039975494,0.5029287011781338,0.5086447179395877,0.7472090660209627,0.21758961199506946,0.7601678756325969
0.636,0.62225,0.6822499999999999,0.6065,0.7127500000000001,0.54,0.8795000000000001,0.841,0.7747499999999999,0.71075,0.7354999999999999,0.6485,0.4936131107367131,0.5019068770102619,0.5791928319803952,0.5017168248401351,0.513290243701187,0.7706507900368941,0.2343823993856082,0.7816751327546861
0.6355,0.62175,0.68175,0.60575,0.7120000000000001,0.53875,0.8797499999999999,0.8405,0.7755,0.711,0.7365,0.64925,0.4936590595803339,0.5017996630418134,0.5799126971971206,0.5000403958588476,0.5194506150086835,0.7706507900368941,0.2343823993856082,0.7816751327546861
0.63475,0.621,0.6815000000000001,0.607,0.7105,0.53775,0.8805,0.84,0.7795000000000001,0.7145,0.7390000000000001,0.6635,0.49370500842395465,0.501692449073365,0.580632562413846,0.49836396687756007,0.52561098631618,0.7815473860724893,0.2393200430693912,0.7887830710834214
0.6345000000000001,0.62075,0.68175,0.609,0.70975,0.5379999999999999,0.8809999999999999,0.84,0.7827500000000001,0.7177500000000001,0.7404999999999999,0.677,0.4938658293766274,0.5013248583243989,0.5829146883136774,0.49963643709267724,0.5332862033275241,0.7991180331814118,0.23538846040679479,0.796122452263471
0.63425,0.6204999999999999,0.682,0.611,0.7090000000000001,0.53825,0.8815000000000001,0.84,0.7859999999999999,0.721,0.742,0.6905,0.49442487364068005,0.5020447235411242,0.5843084699035075,0.5025045444924116,0.5434053709739051,0.8041541852586521,0.23933357582165557,0.8000486350724876
0.634,0.62025,0.6822499999999999,0.613,0.70825,0.5385,0.882,0.84,0.78925,0.72425,0.7434999999999999,0.7040000000000001,0.49414152243835197,0.502488895696125,0.5872032470516159,0.5054332457297768,0.5539082998815245,0.8133702779590614,0.24328078355173988,0.8073996110617634
0.63375,0.62,0.6825,0.615,0.7075,0.53875,0.8825,0.84,0.7925,0.7275,0.745,0.7175,0.4961249808546485,0.5016388420891408,0.5999081023127585,0.5079983841190507,0.5791355274636739,0.8200762796958384,0.2363966015074434,0.8142570649969975
0.63375,0.62,0.6825,0.615,0.7075,0.53875,0.8825,0.84,0.7925,0.7275,0.745,0.7175,0.497909327615255,0.5048399448613876,0.6102925409710522,0.513956776152053,0.6186830928021075,0.8259367132906956,0.25315504311533654,0.8198904635556457
0.63375,0.62,0.6825,0.615,0.7075,0.53875,0.8825,0.84,0.7925,0.7275,0.745,0.7175,0.4969750344616327,0.5055291775156991,0.6176596722315821,0.5152090484278745,0.6651181532883019,0.8326320717153214,0.25118975956814227,0.8247898460167868
0.63375,0.62,0.6825,0.615,0.7075,0.53875,0.8825,0.84,0.7925,0.7275,0.745,0.7175,0.4957650482462858,0.5053300658600092,0.6253867361004748,0.5149868711548532,0.7068268958608378,0.859418811524653,0.25416630433517806,0.8380187481907285
0.636,0.62175,0.6835,0.616,0.71,0.54025,0.8909999999999999,0.84625,0.79825,0.7375,0.75325,0.7325,0.4970439577270639,0.5059810078113034,0.6323709603308316,0.513936578232501,0.7553221482480383,0.9272924670978898,0.32611586138042126,0.8423689863144427
0.63825,0.6235,0.6845,0.617,0.7125,0.54175,0.8995000000000001,0.8525,0.804,0.7475,0.7615000000000001,0.7475,0.49760300199111657,0.5123372645121764,0.6367820493184255,0.5087861035344013,0.7962431740114069,0.9272924670978898,0.32611586138042126,0.8423689863144427
0.6405,0.62525,0.6855,0.618,0.715,0.54325,0.9079999999999999,0.85875,0.80975,0.7575,0.7697499999999999,0.7625,0.49793996017766884,0.5112727829682953,0.642449073364987,0.4987679256437304,0.834437478897814,0.9147473287540563,0.3142711180709754,0.8323576653617992
0.64275,0.627,0.6865000000000001,0.619,0.7175,0.5447500000000001,0.9165000000000001,0.865,0.8155,0.7675,0.778,0.7775,0.49892020217491195,0.5106677898606219,0.6487900137846531,0.4864067868737326,0.8704302116587177,0.9089507757591032,0.30831805300842685,0.8099537337095947
0.645,0.62875,0.6875,0.62,0.72,0.54625,0.925,0.87125,0.82125,0.7775,0.78625,0.7925,0.4987210905192219,0.5137463623832134,0.6523433910246592,0.47012724823575613,0.9015148438084417,0.903138262977672,0.30336894441607987,0.7904329455967651
0.645,0.62875,0.6875,0.62,0.72,0.54625,0.925,0.87125,0.82125,0.7775,0.78625,0.7925,0.49792464389646196,0.5195359166794302,0.6454280900597336,0.46628963988803457,0.9231872337586455,0.8872640789904138,0.29446536005129326,0.771653440837772
0.645,0.62875,0.6875,0.62,0.72,0.54625,0.925,0.87125,0.82125,0.7775,0.78625,0.7925,0.4935748200336958,0.5198269260223618,0.6261602083014244,0.4732579289253099,0.9263381111041472,0.8530482036643691,0.2736962193466796,0.7172199317462751
0.64575,0.63025,0.6884999999999999,0.62025,0.72275,0.55125,0.9275,0.8745,0.821,0.77825,0.7865000000000001,0.79325,0.4869198958492878,0.5211441262061571,0.5976795833971512,0.49018380193664995,0.9012118720141038,0.8212732118642275,0.2667568662535947,0.6862133092133245
0.6465000000000001,0.6317499999999999,0.6895,0.6204999999999999,0.7254999999999999,0.55625,0.93,0.87775,0.82075,0.779,0.78675,0.794,0.4703170470209833,0.5242073824475417,0.5723005054372798,0.5125429208357173,0.8660270572988797,0.7836590938205273,0.26770047594787594,0.655192152167714
0.64725,0.63325,0.6905,0.62075,0.7282500000000001,0.56125,0.9325,0.8809999999999999,0.8205,0.7797499999999999,0.787,0.79475,0.4570761219175984,0.522453668249349,0.5531628120692296,0.5327004638184697,0.8107856912520193,0.7836590938205273,0.26770047594787594,0.655192152167714
0.648,0.63475,0.6915,0.621,0.731,0.56625,0.935,0.88425,0.82025,0.7805,0.7872499999999999,0.7955,0.4498544953285342,0.5157910859243375,0.5434752642058508,0.5383356889017159,0.7360937098805742,0.7083669667697243,0.2459346468154161,0.6012266887319774
0.64875,0.63625,0.6925,0.62125,0.73375,0.57125,0.9375,0.8875,0.82,0.78125,0.7875,0.79625,0.4436590595803339,0.5099708990657068,0.5368356563026497,0.5366592599994036,0.65673600545978,0.30394479596910523,0.4565750436935985,0.23312505637654937
0.64875,0.63625,0.6925,0.62125,0.73375,0.57125,0.9375,0.8875,0.82,0.78125,0.7875,0.79625,0.4401899218869658,0.5064941032317354,0.5404732730892939,0.5264996966718694,0.594061800595208,0.272212398144565,0.47232534420084304,0.19566515818621538
0.64875,0.63625,0.6925,0.62125,0.73375,0.57125,0.9375,0.8875,0.82,0.78125,0.7875,0.79625,0.44645428090059736,0.5023969980088835,0.5410016847909328,0.5139971719911568,0.5252272250549415,0.272212398144565,0.47232534420084304,0.19566515818621538
0.64925,0.6375,0.6927500000000001,0.622,0.735,0.57175,0.9377500000000001,0.88875,0.82075,0.78175,0.7872499999999999,0.79625,0.45104150712207075,0.4976719252565477,0.533603920967989,0.5055948292441425,0.4774389009577107,0.24718067521897735,0.43876890276799474,0.13717582381707494
0.6497499999999999,0.63875,0.693,0.62275,0.73625,0.57225,0.938,0.89,0.8215,0.7822499999999999,0.787,0.79625,0.4500306325624138,0.4936514014397304,0.5243835196814214,0.5019188041936046,0.46994546601208614,0.23632667315898348,0.4308682470694402,0.11245009118495887
0.6502500000000001,0.64,0.69325,0.6235,0.7375,0.57275,0.93825,0.89125,0.8222499999999999,0.7827500000000001,0.78675,0.79625,0.44993107673456884,0.48985296370041354,0.5169398070148568,0.49985861444467383,0.47681276560955244,0.2196335552189285,0.39832515917165706,0.09090072203757961
0.65075,0.64125,0.6934999999999999,0.62425,0.73875,0.57325,0.9384999999999999,0.8925,0.823,0.78325,0.7865000000000001,0.79625,0.4504824628580181,0.48568693521213047,0.5103691223770869,0.5007473236947098,0.49806099845941404,0.2196335552189285,0.39832515917165706,0.09090072203757961
0.65125,0.6425,0.69375,0.625,0.74,0.57375,0.93875,0.89375,0.82375,0.78375,0.78625,0.79625,0.4548399448613877,0.4820493184254863,0.5047557053147496,0.5048677033900093,0.5343970903244328,0.1979095913124623,0.38351013580508436,0.04486667903405061
0.65125,0.6425,0.69375,0.625,0.74,0.57375,0.93875,0.89375,0.82375,0.78375,0.78625,0.79625,0.459940266503293,0.47984377393168937,0.5038137540205239,0.5108260955019869,0.5780650344104631,0.1979095913124623,0.38351013580508436,0.04486667903405061
0.6517499999999999,0.64275,0.6940000000000001,0.6255,0.7402500000000001,0.57475,0.9384999999999999,0.8945000000000001,0.82475,0.78475,0.7859999999999999,0.79675,0.4655077347220095,0.47863378771634246,0.5057665798744065,0.5136538069836422,0.6035346357636313,0.19713323060827131,0.39730452535847505,0.01815126537987087
0.65225,0.643,0.6942499999999999,0.626,0.7404999999999999,0.57575,0.93825,0.8952500000000001,0.82575,0.7857500000000001,0.7857500000000001,0.7972499999999999,0.47211671006279676,0.47756930617246135,0.5080410476336346,0.5155120173791035,0.6291456217639102,0.19544741079875844,0.386454402633175,0.012506757836669125
0.65275,0.64325,0.6945,0.6265,0.74075,0.57675,0.938,0.8959999999999999,0.82675,0.78675,0.7855,0.7977500000000001,0.478825241231429,0.47698728748659824,0.5095956501761373,0.5126035142587282,0.6390022153504631,0.18959762051605267,0.3913837259991101,0.004173594438823751
0.65325,0.6435,0.69475,0.627,0.741,0.57775,0.9377500000000001,0.8967499999999999,0.8277500000000001,0.7877500000000001,0.78525,0.79825,0.48465308623066317,0.47746209220401287,0.5111272782968296,0.5066451221467506,0.6385982563276231,0.1904431990214703,0.38349764309255097,0.004665170099750369
0.65375,0.64375,0.695,0.6275,0.74125,0.57875,0.9375,0.8975,0.82875,0.78875,0.785,0.79875,0.48939347526420585,0.47871802726298057,0.5126818808393322,0.49959604111536676,0.6283780998732352,0.19043787218364572,0.380539843512196,0.005401172817892985
0.65375,0.64375,0.695,0.6275,0.74125,0.57875,0.9375,0.8975,0.82875,0.78875,0.785,0.79875,0.4925869198958493,0.48070914381988056,0.5138842089140757,0.4946071500895832,0.6050292821263725,0.18877334936193346,0.38054296363138895,0.004907274791254048
0.65375,0.64375,0.695,0.6275,0.74125,0.57875,0.9375,0.8975,0.82875,0.78875,0.785,0.79875,0.4944325317812835,0.4830295604227294,0.5152090672384745,0.4921631994545464,0.5744294050213347,0.18877334936193346,0.38054296363138895,0.004907274791254048
0.65375,0.64375,0.695,0.6275,0.74125,0.57875,0.9375,0.8975,0.82875,0.78875,0.785,0.79875,0.4954434063409404,0.48521978863531934,0.5165109511410629,0.4927691376136738,0.5393051889612316,0.18792778122001355,0.37856727968688486,0.005400662237822991
0.65375,0.64375,0.695,0.6275,0.74125,0.57875,0.9375,0.8975,0.82875,0.78875,0.785,0.79875,0.49506049931076734,0.4866671772093736,0.5182034002144279,0.49565744287372854,0.5032720663633428,0.18711415337804582,0.3766009683357212,0.004910565711887065
0.65375,0.64375,0.695,0.62775,0.74125,0.57875,0.9375,0.89725,0.828,0.78925,0.78525,0.79875,0.49380456425179964,0.48771634247204776,0.5203400214427937,0.49975762464947626,0.469440518418165,0.19294796314727777,0.37955563556112165,0.004179427429320577
0.65375,0.64375,0.695,0.628,0.74125,0.57875,0.9375,0.897,0.8272499999999999,0.78975,0.7855,0.79875,0.4922882524123143,0.48800735181497934,0.5220248123755552,0.5029690970172376,0.44732377518552235,0.18962956081600485,0.3854702069178622,0.006144260221310142
0.65375,0.64375,0.695,0.62825,0.74125,0.57875,0.9375,0.8967499999999999,0.8265,0.79025,0.7857500000000001,0.79875,0.49054219635472507,0.4879460866901516,0.5243375708378006,0.5043021609712667,0.4286406818305881,0.18541236341855685,0.38054296363138895,0.003442168374763352
0.65375,0.64375,0.695,0.6285000000000001,0.74125,0.57875,0.9375,0.8965000000000001,0.82575,0.7907500000000001,0.7859999999999999,0.79875,0.48812222392403126,0.48810690764282433,0.5281053760147036,0.5036356289942521,0.4115734219608303,0.18541236341855685,0.38054296363138895,0.003442168374763352
0.65375,0.64375,0.695,0.62875,0.74125,0.57875,0.9375,0.89625,0.825,0.79125,0.78625,0.79875,0.4858247817429928,0.4886965844692909,0.5322714045029867,0.5008685112515088,0.3942839863975561,0.19045384233362178,0.3785651996074229,0.004663381522292898
0.65375,0.64375,0.695,0.62875,0.74125,0.57875,0.9375,0.89625,0.825,0.79125,0.78625,0.79875,0.4839715117169551,0.4897380915913616,0.5367284423342013,0.49596041206188324,0.37592405967647696,0.18792778122001355,0.37462632443094807,0.00466414584518563
0.65375,0.64375,0.695,0.62875,0.74125,0.57875,0.9375,0.89625,0.825,0.79125,0.78625,0.79875,0.4812298973809159,0.49169857558584773,0.5422882524123143,0.4890527167832636,0.35263583489851746,0.18792778122001355,0.37462632443094807,0.00466414584518563
0.65375,0.64375,0.695,0.62875,0.74125,0.57875,0.9375,0.89625,0.825,0.79125,0.78625,0.79875,0.47831214581099707,0.4940572828917139,0.5477331903813754,0.4815794795992404,0.32918602929135066,0.18792245438218896,0.3795566878366142,0.006631287077976525
0.65425,0.6445000000000001,0.6955,0.62925,0.742,0.579,0.9377500000000001,0.8967499999999999,0.82525,0.79125,0.78625,0.7995,0.4753714198192679,0.4975723694287027,0.5514856792770715,0.474389013367919,0.3076550265154655,0.19128876716339013,0.3765999282959901,0.0056407122313479234
0.6547499999999999,0.6452500000000001,0.696,0.62975,0.74275,0.5792499999999999,0.938,0.89725,0.8255,0.79125,0.78625,0.80025,0.4723005054372798,0.5014397304334508,0.5547710215959565,0.4692183412241189,0.2907695499750312,0.19295328998510236,0.37955563556112165,0.004173832709523123
0.6552500000000001,0.6459999999999999,0.6965,0.63025,0.7434999999999999,0.5795,0.93825,0.89775,0.82575,0.79125,0.78625,0.8009999999999999,0.4687088374942564,0.505758921733803,0.5578802266809618,0.4673601310458395,0.27953949722714744,0.19295328998510236,0.37955563556112165,0.004173832709523123
0.65575,0.6467499999999999,0.6970000000000001,0.63075,0.74425,0.57975,0.9384999999999999,0.89825,0.826,0.79125,0.78625,0.80175,0.4050084239546638,0.513822943789248,0.5411701638842089,0.4706523952497589,0.27608564808730796,0.19544741079875844,0.38152715934670184,0.0049042004803476116
0.65625,0.6475,0.6975,0.63125,0.745,0.58,0.93875,0.89875,0.82625,0.79125,0.78625,0.8025,0.38706540052075356,0.5212130494715883,0.5515852351049165,0.46695617233890063,0.24976772937444525,0.18792245438218896,0.3795566878366142,0.004168714531124258
0.65625,0.6475,0.6975,0.63125,0.745,0.58,0.93875,0.89875,0.82625,0.79125,0.78625,0.8025,0.3878541890029101,0.520975647112881,0.5587838872721703,0.4709553642009878,0.22916582931844232,0.18792245438218896,0.3854733270370551,0.004914127394678641
0.65625,0.6475,0.6975,0.63125,0.745,0.58,0.93875,0.89875,0.82625,0.79125,0.78625,0.8025,0.38227906264359013,0.5200413539592587,0.5580257313524276,0.4805897808304203,0.1972126867859374,0.18792245438218896,0.3854733270370551,0.004914127394678641
0.65625,0.6475,0.6975,0.63125,0.745,0.58,0.93875,0.89875,0.82625,0.79125,0.78625,0.8025,0.3876167866442028,0.5168555674682187,0.563325164650023,0.48119571873287814,0.15701878423103133,0.18792778122001355,0.3834986831322821,0.007602507845526898
0.65625,0.6475,0.6975,0.63125,0.745,0.58,0.93875,0.89875,0.82625,0.79125,0.78625,0.8025,0.45116403737172617,0.5094271710828611,0.5885434216572216,0.47957988358922155,0.1147444992792403,0.18204605063735566,0.3765988760204977,0.0058929975800052145
0.65575,0.64625,0.6975,0.63075,0.7445,0.5795,0.9384999999999999,0.89825,0.82625,0.7909999999999999,0.7872499999999999,0.8027500000000001,0.4696661050696891,0.5021519375095727,0.585679277071527,0.48582104657492564,0.09917188956303563,0.1887520523741328,0.38054088355192695,0.004176136508687559
0.6552500000000001,0.645,0.6975,0.63025,0.7440000000000001,0.579,0.93825,0.89775,0.82625,0.7907500000000001,0.78825,0.8029999999999999,0.47128197273701944,0.505077347220095,0.5997549395006893,0.4859624321697394,0.08416482348969001,0.1887520523741328,0.38054088355192695,0.004176136508687559
0.6547499999999999,0.64375,0.6975,0.62975,0.7434999999999999,0.5785,0.938,0.89725,0.82625,0.7905,0.78925,0.80325,0.48433144432531783,0.5132102925409711,0.6162812069229591,0.4990506966754074,0.08679055713814932,0.18374251375902007,0.383499723172013,0.004668538381000062
0.65425,0.6425,0.6975,0.62925,0.743,0.578,0.9377500000000001,0.8967499999999999,0.82625,0.79025,0.79025,0.8035,0.4858860468678205,0.5133864297748507,0.6261755245826314,0.5118359925457475,0.10307009767153175,0.18374251375902007,0.383499723172013,0.004668538381000062
0.65375,0.64125,0.6975,0.62875,0.7425,0.5775,0.9375,0.89625,0.82625,0.79,0.79125,0.80375,0.4921121151784347,0.5140067391637311,0.6374865982539439,0.5134316297698522,0.128337718881478,0.1904219020336696,0.3795598079558071,0.003686262781327717
0.65375,0.64125,0.6975,0.62875,0.7425,0.5775,0.9375,0.89625,0.82625,0.79,0.79125,0.80375,0.49681421350896005,0.5168402511870118,0.6487670393628426,0.513573015364666,0.15742275336270284,0.1904219020336696,0.3795598079558071,0.003686262781327717
0.65375,0.64125,0.6975,0.62875,0.7425,0.5775,0.9375,0.89625,0.82625,0.79,0.79125,0.80375,0.5024199724306938,0.5117246132638995,0.6482539439424108,0.5090284788849251,0.19149667823790933,0.18877867619975808,0.38054296363138895,0.003923303446864195
0.65375,0.64125,0.6975,0.62875,0.7425,0.5775,0.9375,0.89625,0.82625,0.79,0.79125,0.80375,0.5015469444018992,0.5124061877776076,0.6342012559350589,0.496243183646387,0.26097758909924246,0.1912674701755895,0.37463048458987197,0.004426596146791455
0.65375,0.64125,0.6975,0.62875,0.7425,0.5775,0.9375,0.89625,0.82625,0.79,0.79125,0.80375,0.5000536069842242,0.5115791085924337,0.6233726451217645,0.48596243232768993,0.3194304248287059,0.1887573792119574,0.3815281993864328,0.006132813944467824
0.652,0.63875,0.6965,0.6267499999999999,0.7404999999999999,0.57325,0.93375,0.89275,0.82525,0.78925,0.78875,0.8015000000000001,0.49677592280594274,0.5097181804257926,0.6103308316740695,0.48644718287078687,0.3680670631266212,0.1887573792119574,0.3815281993864328,0.006132813944467824
0.6502500000000001,0.63625,0.6955,0.62475,0.7384999999999999,0.569,0.93,0.88925,0.8242499999999999,0.7885,0.78625,0.79925,0.49627048552611425,0.5055444937969061,0.5968371879307705,0.492971117204069,0.4179559714890511,0.18959762051605267,0.37857143984580877,0.008342315158797355
0.6485,0.63375,0.6945,0.62275,0.7365,0.56475,0.92625,0.88575,0.82325,0.7877500000000001,0.78375,0.797,0.49445550620309386,0.5062260683106142,0.5810843927094501,0.5053524540515691,0.46188648773950347,0.18959762051605267,0.37857143984580877,0.008342315158797355
0.6467499999999999,0.63125,0.6934999999999999,0.62075,0.7345,0.5605,0.9225,0.88225,0.8222499999999999,0.787,0.78125,0.79475,0.4944708224843008,0.4960407413080104,0.584002144279369,0.5070086850343296,0.46461320956416785,0.2054611611911593,0.38054608375058196,0.0210909610772435
0.645,0.62875,0.6925,0.61875,0.7325,0.55625,0.91875,0.87875,0.82125,0.78625,0.77875,0.7925,0.4950834737325777,0.4969597181804258,0.5826543115331597,0.5145627142124614,0.47392446011257194,0.24301138827145766,0.19717388902680635,0.03656829696945976
0.645,0.62875,0.6925,0.61875,0.7325,0.55625,0.91875,0.87875,0.82125,0.78625,0.77875,0.7925,0.4956118854342166,0.4982462858018073,0.580632562413846,0.5216723888445505,0.4831145228277637,0.23628940602120674,0.21294293472073167,0.036808113333922365
0.645,0.62875,0.6925,0.61875,0.7325,0.55625,0.91875,0.87875,0.82125,0.78625,0.77875,0.7925,0.49483841323326694,0.5000918976872415,0.578909480778067,0.5238941620486154,0.4868309433422729,0.24887181150281718,0.19421712948618236,0.040969190824968964
0.645,0.629,0.69175,0.6182500000000001,0.73175,0.55625,0.9135,0.87375,0.8170000000000001,0.7759999999999999,0.774,0.77775,0.4934063409404197,0.501095114106295,0.5776229131566856,0.5238335681320092,0.48759846507499743,0.23382190903317598,0.23661470395691195,0.04464005729636719
0.645,0.62925,0.691,0.61775,0.731,0.55625,0.90825,0.86875,0.8127500000000001,0.76575,0.76925,0.763,0.49229591055291777,0.5019221932914688,0.5764741920661663,0.5225812958561877,0.48812361161514867,0.24719664536895347,0.5038394779675964,0.10964309370057143
0.645,0.6295000000000001,0.69025,0.61725,0.7302500000000001,0.55625,0.903,0.86375,0.8085,0.7555,0.7645000000000001,0.7482500000000001,0.49260989431765967,0.5025425026803492,0.5762903966916832,0.5206422936837998,0.48731569420127085,0.24719664536895347,0.5038394779675964,0.10964309370057143
0.645,0.62975,0.6895,0.61675,0.7295,0.55625,0.89775,0.85875,0.80425,0.7452500000000001,0.7597499999999999,0.7334999999999999,0.4927630571297289,0.5029483841323327,0.5764512176443559,0.5182387388878668,0.4866289643047044,0.24719664536895347,0.5038394779675964,0.10964309370057143
0.645,0.63,0.68875,0.61625,0.72875,0.55625,0.8925,0.85375,0.8,0.735,0.755,0.71875,0.49299280134783274,0.5025578189615562,0.5768111502527187,0.5161179554395118,0.486527974706945,0.25301448498820933,0.4792032860067536,0.12922166864684057
0.645,0.63,0.68875,0.61625,0.72875,0.55625,0.8925,0.85375,0.8,0.735,0.755,0.71875,0.49349058048705774,0.5023127584622453,0.577431459641599,0.5137547966406331,0.48699252733049003,0.2015305248689798,0.4634956393642411,0.2532470865604958
0.645,0.63,0.68875,0.61625,0.72875,0.55625,0.8925,0.85375,0.8,0.735,0.755,0.71875,0.4934752642058508,0.5021978863531934,0.5778909480778067,0.5124419306061558,0.48822460152880914,0.2015305248689798,0.4634956393642411,0.2532470865604958
0.645,0.63,0.68875,0.61625,0.72875,0.55625,0.8925,0.85375,0.8,0.735,0.755,0.71875,0.4935058967682647,0.5019987746975034,0.5781666411395313,0.5113714399222025,0.4897192488392534,0.18639010761031122,0.44674759815365783,0.2837522513873466
0.644,0.629,0.688,0.6154999999999999,0.72725,0.55475,0.8897499999999999,0.852,0.7959999999999999,0.731,0.7517499999999999,0.7055,0.49367437586154084,0.5018149793230203,0.5783963853576352,0.5104221367555604,0.49157745917548323,0.15701341572396926,0.5384831402279329,0.3317864562292857
0.643,0.628,0.6872499999999999,0.61475,0.72575,0.55325,0.887,0.8502500000000001,0.792,0.727,0.7484999999999999,0.6922499999999999,0.4937969061111962,0.5020447235411242,0.578526573747894,0.5089072912096633,0.4934356695117131,0.17210059569488492,0.6144184109448301,0.3481265919847903
0.642,0.627,0.6865000000000001,0.614,0.72425,0.55175,0.88425,0.8484999999999999,0.7879999999999999,0.723,0.7452500000000001,0.679,0.4936514014397304,0.5021289630877623,0.5783963853576352,0.5076348210142898,0.49472833762663837,0.17210059569488492,0.6144184109448301,0.3481265919847903
0.6409999999999999,0.626,0.6857500000000001,0.6132500000000001,0.72275,0.55025,0.8815000000000001,0.84675,0.784,0.7190000000000001,0.742,0.6657500000000001,0.4937739316893858,0.5023127584622453,0.5783044876703937,0.5059381941529381,0.4959402140633561,0.21397451547513238,0.6459877157603718,0.3554448134889684
0.64,0.625,0.685,0.6125,0.72125,0.54875,0.87875,0.845,0.78,0.715,0.73875,0.6525,0.49380456425179964,0.5023740235870731,0.5782891713891867,0.503978993982023,0.49719248633917756,0.36876002791470297,0.5720937126698385,0.3743271506212753
0.64,0.625,0.685,0.6125,0.72125,0.54875,0.87875,0.845,0.78,0.715,0.73875,0.6525,0.49381988053300657,0.5025042119773319,0.5781896155613417,0.5019592000524522,0.4983033730201853,0.36876002791470297,0.5720937126698385,0.3743271506212753
0.64,0.625,0.685,0.6125,0.72125,0.54875,0.87875,0.845,0.78,0.715,0.73875,0.6525,0.49381988053300657,0.502488895696125,0.5783198039516005,0.500161583474878,0.49937386384234544,0.41479791816814326,0.5553467237347478,0.38413099040001164
0.63925,0.62475,0.68475,0.612,0.7197499999999999,0.54825,0.87925,0.8447499999999999,0.77875,0.7140000000000001,0.73725,0.6495000000000001,0.49381988053300657,0.5023893398682799,0.5784576504824629,0.4982023833829382,0.5005049484823927,0.5118991970766148,0.5593365975653257,0.4127642247994309
0.6385000000000001,0.6245,0.6845,0.6114999999999999,0.71825,0.54775,0.8797499999999999,0.8445,0.7775,0.713,0.73575,0.6465000000000001,0.493727982845765,0.5021213049471588,0.5785035993260836,0.4967885276322387,0.5013330639737729,0.690402372022229,0.5161921644458943,0.6824591299994104
0.63775,0.62425,0.68425,0.611,0.71675,0.54725,0.8802500000000001,0.84425,0.77625,0.7120000000000001,0.73425,0.6435,0.4936131107367131,0.5020064328381069,0.5784040434982386,0.49594021414233136,0.5018582103954613,0.690402372022229,0.5161921644458943,0.6824591299994104
0.637,0.624,0.684,0.6104999999999999,0.71525,0.54675,0.88075,0.8440000000000001,0.775,0.711,0.73275,0.6405,0.49364374329912697,0.5018839025884515,0.5784193597794456,0.49527368208634154,0.5022015753437445,0.6995332871349331,0.5063668356927001,0.7171484087617396
0.63625,0.62375,0.68375,0.61,0.71375,0.54625,0.88125,0.84375,0.77375,0.71,0.73125,0.6375,0.49367437586154084,0.5018226374636239,0.5782049318425486,0.49488992129895454,0.5025651382313234,0.739566991716736,0.4827606256668567,0.7831261208586346
0.63625,0.62375,0.68375,0.61,0.71375,0.54625,0.88125,0.84375,0.77375,0.71,0.73125,0.6375,0.49363608515852353,0.5018609281666412,0.5779062643590136,0.49464754602740607,0.5027873155438324,0.7537180887567047,0.4670092851198811,0.8112175895762448
0.63625,0.62375,0.68375,0.61,0.71375,0.54625,0.88125,0.84375,0.77375,0.71,0.73125,0.6375,0.4936207688773166,0.5019375095726758,0.5777990503905652,0.49454655635067135,0.5027267217456891,0.7787764251444198,0.44238558587157173,0.839320981112096
0.6367499999999999,0.62375,0.68375,0.61025,0.71375,0.5455,0.8817499999999999,0.8434999999999999,0.7735,0.71025,0.7315,0.6385000000000001,0.49362842701792004,0.5018992188696585,0.5776918364221167,0.49456675434919845,0.5025651382313234,0.7787764251444198,0.44238558587157173,0.839320981112096
0.63725,0.62375,0.68375,0.6104999999999999,0.71375,0.5447500000000001,0.88225,0.84325,0.77325,0.7105,0.73175,0.6395000000000001,0.4934829223464543,0.5017843467606066,0.577546331750651,0.4948697234583779,0.5023429609188145,0.8322168270889478,0.3980789389421672,0.9011581626977317
0.63775,0.62375,0.68375,0.61075,0.71375,0.544,0.88275,0.843,0.773,0.71075,0.732,0.6405,0.4934063409404197,0.5016235258079338,0.5775922805942717,0.4953746719210268,0.5018986062740527,0.8322168270889478,0.3980789389421672,0.9011581626977317
0.63825,0.62375,0.68375,0.611,0.71375,0.54325,0.88325,0.8427500000000001,0.77275,0.711,0.73225,0.6415000000000001,0.49338336651860926,0.5014703629958646,0.5775999387348751,0.4959806101393856,0.5014138557506995,0.8413903361772533,0.3803456742123017,0.9138585572523489
0.63875,0.62375,0.68375,0.61125,0.71375,0.5425,0.88375,0.8425,0.7725,0.71125,0.7325,0.6425,0.49335273395619544,0.50139378158983,0.5774927247664268,0.4964653606824826,0.5010704907826725,0.8605882389701113,0.3478327597024787,0.9419908924893206
0.63875,0.62375,0.68375,0.61125,0.71375,0.5425,0.88375,0.8425,0.7725,0.71125,0.7325,0.6425,0.49328381069076427,0.501294225761985,0.5775846224536683,0.49715209059879284,0.5005453443609841,0.7735007104540406,0.2472259112023622,0.9273819558218273
0.63875,0.62375,0.68375,0.61125,0.71375,0.5425,0.88375,0.8425,0.7725,0.71125,0.7325,0.6425,0.49329146883136776,0.501209986215347,0.577630571297289,0.4980206020082521,0.499919208262561,0.7735007104540406,0.2472259112023622,0.9273819558218273
0.63875,0.62375,0.68375,0.61125,0.71375,0.5425,0.88375,0.8425,0.7725,0.71125,0.7325,0.6425,0.49329146883136776,0.5012559350589677,0.5775769643130648,0.4991920824479155,0.4992728742248422,0.7701876349605922,0.24229033536227956,0.9151782071429532
0.6385000000000001,0.62375,0.684,0.61175,0.71375,0.5415,0.88375,0.8425,0.77125,0.71125,0.73225,0.6435,0.4933603920967989,0.5011257466687088,0.5776994945627202,0.5004241567252099,0.4988891133782237,0.7535104664435178,0.23733291868784623,0.8919752053034725
0.63825,0.62375,0.68425,0.61225,0.71375,0.5405,0.88375,0.8425,0.77,0.71125,0.732,0.6445000000000001,0.49332975953438507,0.5012329606371573,0.577829682952979,0.5020601897884184,0.4983235710582001,0.7468204348567168,0.23732250605477484,0.8802582792492367
0.638,0.62375,0.6845,0.61275,0.71375,0.5395,0.88375,0.8425,0.76875,0.71125,0.73175,0.6455,0.49335273395619544,0.50139378158983,0.5778832899372033,0.503332659964048,0.49802060194902065,0.7410025952374609,0.22350937131470336,0.8702517546548268
0.63775,0.62375,0.68475,0.6132500000000001,0.71375,0.5385,0.88375,0.8425,0.7675,0.71125,0.7315,0.6465000000000001,0.4933374176749885,0.5015239699800889,0.577913922499617,0.504221369293059,0.4978994142737588,0.7410025952374609,0.22350937131470336,0.8702517546548268
0.6375,0.62375,0.685,0.61375,0.71375,0.5375,0.88375,0.8425,0.76625,0.71125,0.73125,0.6475,0.4933221013937816,0.5015852351049165,0.5780211364680655,0.5046455260775004,0.4977782265984969,0.7150986907078257,0.20079681236876915,0.837509514195441
0.6375,0.62375,0.68475,0.614,0.71375,0.5375,0.883,0.8420000000000001,0.76625,0.711,0.7315,0.648,0.49331444325317814,0.50179200490121,0.5780364527492725,0.5049484951866798,0.49755604928598796,0.7150986907078257,0.20079681236876915,0.837509514195441
0.6375,0.62375,0.6845,0.61425,0.71375,0.5375,0.88225,0.8415,0.76625,0.71075,0.73175,0.6485,0.4932378618471435,0.5016771327921581,0.5780670853116863,0.5050090890243107,0.4974146637306618,0.7126098863684966,0.19487393292994232,0.828236974754291
0.6375,0.62375,0.68425,0.6145,0.71375,0.5375,0.8815000000000001,0.841,0.76625,0.7105,0.732,0.649,0.4932225455659366,0.5016465002297442,0.5779905039056517,0.5052716622154111,0.4972732781753357,0.6892213996403183,0.18992691665281888,0.8130930693087689
0.6375,0.62375,0.684,0.61475,0.71375,0.5375,0.88075,0.8405,0.76625,0.71025,0.73225,0.6495000000000001,0.49339102465921275,0.5016388420891408,0.5780977178741001,0.5056958189998524,0.49719248641815283,0.6107067015215968,0.17708028471687193,0.7681181333749636
0.6375,0.62375,0.68375,0.615,0.71375,0.5375,0.88,0.84,0.76625,0.71,0.7325,0.65,0.49346760606524737,0.5016541583703477,0.5779675294838413,0.5060391839481356,0.49717228849860096,0.6107067015215968,0.17708028471687193,0.7681181333749636
0.6375,0.62375,0.68375,0.615,0.71375,0.5375,0.88,0.84,0.76625,0.71,0.7325,0.65,0.49345994792464387,0.5016694746515546,0.5778756317965998,0.5065239344912326,0.4973338720129666,0.6149185824447179,0.1682131262141929,0.7678773082280597
0.6375,0.62375,0.68375,0.615,0.71375,0.5375,0.88,0.84,0.76625,0.71,0.7325,0.65,0.4935977944555062,0.5018226374636239,0.5777684178281514,0.5067057159251501,0.4976368411024022,0.6049154753644684,0.16132165165601794,0.7654308591809337
0.63775,0.6235,0.6835,0.61475,0.7134999999999999,0.5375,0.88,0.8395,0.7675,0.71,0.73275,0.6495000000000001,0.4936514014397304,0.5019528258538827,0.5777224689845306,0.5068874973590677,0.4976368411024022,0.6049154753644684,0.16132165165601794,0.7654308591809337
0.638,0.6232500000000001,0.68325,0.6145,0.71325,0.5375,0.88,0.8390000000000001,0.76875,0.71,0.733,0.649,0.4935212130494716,0.5021825700719865,0.5776612038597029,0.5069682890372753,0.49769743494003316,0.6015757864088924,0.16231209984547823,0.7659290878548937
0.63825,0.623,0.6829999999999999,0.61425,0.713,0.5375,0.88,0.8384999999999999,0.77,0.71,0.7332500000000001,0.6485,0.493544187471282,0.5023127584622453,0.5776841782815132,0.5071904663102966,0.49771763285958504,0.6015970730331954,0.1593615805432402,0.7683759113274043
0.6385000000000001,0.62275,0.6827500000000001,0.614,0.7127500000000001,0.5375,0.88,0.838,0.77125,0.71,0.7334999999999999,0.648,0.4935365293306785,0.5024429468525042,0.5777377852657375,0.5070490807154829,0.49745505962899705,0.5940614733044746,0.16133934456720628,0.7700903231615985
0.63875,0.6225,0.6825,0.61375,0.7125,0.5375,0.88,0.8375,0.7725,0.71,0.73375,0.6475,0.4935135549088681,0.5025578189615562,0.5777760759687548,0.5071298723936905,0.4972126843377047,0.5965875344180828,0.16528551225755958,0.768372674559203
0.63875,0.6225,0.6825,0.61375,0.7125,0.5375,0.88,0.8375,0.7725,0.71,0.73375,0.6475,0.4936131107367131,0.5026497166487977,0.5778756317965998,0.5069480909597729,0.49727327813584804,0.5924129206327384,0.17218843948853682,0.7700677261254694
0.63875,0.6225,0.6825,0.61375,0.7125,0.5375,0.88,0.8375,0.7725,0.71,0.73375,0.6475,0.4936973502833512,0.5026190840863838,0.5778067085311687,0.506847101204063,0.49733387197347895,0.5874140356932749,0.18503401914899134,0.7812907139255454
0.63875,0.6225,0.6825,0.6132500000000001,0.7120000000000001,0.53775,0.8797499999999999,0.8372499999999999,0.7725,0.71,0.7332500000000001,0.647,0.4937739316893858,0.5025195282585389,0.5778832899372033,0.5066451218505935,0.4973944658111099,0.6460769150404293,0.20873702628438576,0.7967068157952432
0.63875,0.6225,0.6825,0.61275,0.7115,0.5379999999999999,0.8795000000000001,0.8370000000000001,0.7725,0.71,0.73275,0.6465000000000001,0.49380456425179964,0.5026037678051769,0.5777684178281514,0.5066249239310416,0.4976368410826584,0.6494379009838058,0.20282974744152374,0.7981674012572956
0.63875,0.6225,0.6825,0.61225,0.711,0.53825,0.87925,0.83675,0.7725,0.71,0.73225,0.6459999999999999,0.49398835962628274,0.5026956654924184,0.5777990503905652,0.5064229445775721,0.49826297722056917,0.6494379009838058,0.20282974744152374,0.7981674012572956
0.63875,0.6225,0.6825,0.61175,0.7105,0.5385,0.879,0.8365,0.7725,0.71,0.73175,0.6455,0.4939960177668862,0.5027262980548323,0.577844999234186,0.5061401734669199,0.4996566350122292,0.6720393836956418,0.21565660638682035,0.8057677956107752
0.6385000000000001,0.62175,0.6825,0.61075,0.7095,0.5379999999999999,0.879,0.83525,0.77275,0.71,0.732,0.6465000000000001,0.4939117782202481,0.5027416143360393,0.578044110889876,0.5055140374079844,0.501656231022248,0.6753843994890422,0.21665017469547365,0.8069776290115928
0.63825,0.621,0.6825,0.61025,0.7090000000000001,0.53725,0.87925,0.8342499999999999,0.773,0.71,0.73275,0.648,0.49382753867361007,0.5030173073977638,0.5781130341553071,0.5046455259985251,0.5039587960624711,0.6829306528934125,0.21764165068890332,0.8106490107046979
0.638,0.62025,0.6825,0.60975,0.7084999999999999,0.5365,0.8795000000000001,0.83325,0.77325,0.71,0.7334999999999999,0.6495000000000001,0.49395006892326543,0.5030632562413846,0.5784193597794456,0.503352857863856,0.5066047260904649,0.6829306528934125,0.21764165068890332,0.8106490107046979
0.63775,0.6195,0.6825,0.60925,0.708,0.5357500000000001,0.8797499999999999,0.8322499999999999,0.7735,0.71,0.73425,0.6509999999999999,0.49395006892326543,0.5031168632256088,0.5788175830908255,0.5017572207187265,0.5096748129423877,0.7072019749012874,0.24132071243896208,0.8194620203467703
0.6375,0.61875,0.6825,0.60875,0.7075,0.535,0.88,0.83125,0.77375,0.71,0.735,0.6525,0.49416449686016234,0.5030938888037985,0.5791162505743606,0.4997576247087077,0.5137345988790316,0.7147375746300084,0.24723839167913403,0.8221397729961009
0.6375,0.61875,0.6825,0.60875,0.7075,0.535,0.88,0.83125,0.77375,0.71,0.735,0.6525,0.49424107826619695,0.5029790166947465,0.5794991576045336,0.4980004040492126,0.5189052713387328,0.7222625310465779,0.2649893615559493,0.8253139874029066
0.6375,0.61875,0.6825,0.60875,0.7075,0.535,0.88,0.83125,0.77375,0.71,0.735,0.6525,0.49421044570378314,0.5024812375555215,0.5801424414152244,0.49664714209665634,0.5254897995886211,0.7247673055358831,0.2758374042017874,0.8289868327588791
0.6375,0.61875,0.6825,0.60875,0.7075,0.535,0.88,0.83125,0.77375,0.71,0.735,0.6525,0.4935058967682647,0.5019298514320722,0.5810307857252259,0.49658654827876925,0.5330640266863047,0.7716188029042956,0.3774211803748614,0.8534093550955968
0.6375,0.61875,0.6825,0.609,0.7072499999999999,0.5347500000000001,0.8797499999999999,0.8305,0.778,0.716,0.7390000000000001,0.67,0.4933374176749885,0.5013861234492265,0.581697043957727,0.5018986062543089,0.5427590369164424,0.7816751472722979,0.38728398726565555,0.8583232457667883
0.6375,0.61875,0.6825,0.60925,0.7070000000000001,0.5345,0.8795000000000001,0.82975,0.7822499999999999,0.722,0.743,0.6875,0.49303109205085005,0.5009419512942258,0.5824322254556593,0.5077560086105765,0.5506968264081097,0.7816751472722979,0.38728398726565555,0.8583232457667883
0.6375,0.61875,0.6825,0.6095,0.70675,0.53425,0.87925,0.8290000000000001,0.7865000000000001,0.728,0.747,0.705,0.4921886965844693,0.5001837953744831,0.5848139071833359,0.5115532212771448,0.5570591778588282,0.8051062279760776,0.3951742303311387,0.8627522602064569
0.6375,0.61875,0.6825,0.60975,0.7065,0.534,0.879,0.82825,0.7907500000000001,0.7340000000000001,0.7509999999999999,0.7225,0.49277071527033234,0.50139378158983,0.5953821412161128,0.5194506158774113,0.5806907674271204,0.8051062279760776,0.3951742303311387,0.8627522602064569
0.6375,0.61875,0.6825,0.61,0.70625,0.53375,0.87875,0.8275,0.795,0.74,0.755,0.74,0.49391943636085156,0.5027109817736254,0.6056210752029407,0.5264996969877703,0.6028681055240722,0.8126471545426232,0.39418899457609485,0.8634991970741596
0.6375,0.61875,0.6825,0.61,0.70625,0.53375,0.87875,0.8275,0.795,0.74,0.755,0.74,0.4936896921427477,0.5033772400061265,0.6132562413845918,0.5320137342378042,0.6398505333419595,0.8252029361986083,0.4060108203041744,0.8598778955498614
0.6375,0.61875,0.6825,0.61,0.70625,0.53375,0.87875,0.8275,0.795,0.74,0.755,0.74,0.49495328534231886,0.5065630264971664,0.6247357941491806,0.5352050083701126,0.6860028239021303,0.8402847893316995,0.4030509406443574,0.8577001369437636
0.63875,0.6204999999999999,0.68375,0.61175,0.70875,0.5355,0.8885,0.8355,0.8007500000000001,0.7484999999999999,0.7617499999999999,0.75075,0.4976336345535304,0.5090672384744984,0.6382447541736866,0.5378509382006684,0.7439911082716526,0.8427948802953316,0.4119191391867675,0.8533098322094639
0.64,0.62225,0.685,0.6135,0.71125,0.53725,0.89825,0.8434999999999999,0.8065000000000001,0.757,0.7685,0.7615000000000001,0.4996477255322408,0.5124597947618318,0.6441568387195589,0.529993939518481,0.7918400247059847,0.8528938186389352,0.4257145810156507,0.8401638729942905
0.64125,0.624,0.68625,0.61525,0.71375,0.539,0.9079999999999999,0.8515,0.8122499999999999,0.7655,0.7752500000000001,0.77225,0.49492265277990505,0.5141828763976106,0.6509342931536223,0.5179559674613134,0.8457887213743158,0.8529364022510388,0.4404890061254302,0.8301661443019961
0.6425,0.62575,0.6875,0.617,0.71625,0.5407500000000001,0.9177500000000001,0.8595,0.818,0.774,0.782,0.7829999999999999,0.49430234339102463,0.5189232654311533,0.6605682340327769,0.50712987223574,0.8762876073810646,0.8588394298214974,0.4503341201050362,0.8155219466654248
0.64375,0.6275,0.68875,0.61875,0.71875,0.5425,0.9275,0.8675,0.82375,0.7825,0.78875,0.79375,0.4883060192985143,0.522568540358401,0.6555674682187165,0.5068471016779145,0.8950514943885876,0.8572015204619128,0.4641212293803099,0.7984294943849342
0.64375,0.6275,0.68875,0.61875,0.71875,0.5425,0.9275,0.8675,0.82375,0.7825,0.78875,0.79375,0.4811839485372951,0.5290166947465156,0.6448077806708531,0.5125833165168706,0.8983235614627075,0.46407433927598063,0.2852276415103447,0.46640621255262643
0.64375,0.6275,0.68875,0.61875,0.71875,0.5425,0.9275,0.8675,0.82375,0.7825,0.78875,0.79375,0.4684561188543422,0.5327002603767805,0.6287486598253944,0.5319733384776757,0.8893758756775445,0.35072177978895963,0.47436553508019136,0.27566534694612
0.64375,0.6275,0.68875,0.61875,0.71875,0.5425,0.9275,0.8675,0.82375,0.7825,0.78875,0.79375,0.4580563639148415,0.5328993720324705,0.6116403737172614,0.5571803660869168,0.8725105940556026,0.3214994729280516,0.4989902866039933,0.2401783966764641
0.645,0.62875,0.6895,0.61875,0.72175,0.54675,0.9295,0.8715,0.8240000000000001,0.7835,0.789,0.7945,0.44440189921886963,0.5306708531168632,0.5942717108286109,0.5777418676976327,0.8613007387534193,0.3214994729280516,0.4989902866039933,0.2401783966764641
0.64625,0.63,0.69025,0.61875,0.7247499999999999,0.551,0.9315000000000001,0.8755,0.8242499999999999,0.7845,0.78925,0.79525,0.4392249961709297,0.5218793077040894,0.5785495481697044,0.5527772144912124,0.7699656577715686,0.2605979951668585,0.5314657474477394,0.14594472398273498
0.64825,0.63225,0.69125,0.6195,0.72875,0.55725,0.93325,0.8802500000000001,0.8240000000000001,0.7865000000000001,0.789,0.7965000000000001,0.43610813294532086,0.5108592433757084,0.5615561341706233,0.5274893945719618,0.6949505090554914,0.2605979951668585,0.5314657474477394,0.14594472398273498
0.6502500000000001,0.6345000000000001,0.6922499999999999,0.62025,0.73275,0.5635,0.935,0.885,0.82375,0.7885,0.78875,0.7977500000000001,0.43889569612498086,0.5000076581406034,0.5480854648491347,0.49680872397228565,0.629852550685682,0.23216271304928834,0.5186263957899093,0.11608171725715767
0.65225,0.6367499999999999,0.69325,0.621,0.73675,0.56975,0.93675,0.8897499999999999,0.8234999999999999,0.7905,0.7885,0.799,0.44734262521059887,0.4942334201255935,0.5345228978404044,0.4664916175040486,0.573257925450399,0.20126525041801427,0.485083499345087,0.07716222691508919
0.653,0.63775,0.6934999999999999,0.62175,0.73775,0.57175,0.9365000000000001,0.8905,0.823,0.7915000000000001,0.7879999999999999,0.7995,0.4566625823250115,0.4884515239699801,0.5207995098790014,0.4379923260067891,0.5223187240076665,0.20210017524778273,0.4643715975329621,0.05903835028794402
0.65375,0.63875,0.69375,0.6225,0.73875,0.57375,0.93625,0.89125,0.8225,0.7925,0.7875,0.8,0.4638995251952826,0.48754786337877165,0.5159442487364068,0.4491415883400692,0.5595839211197755,0.19460184265683855,0.48802359377849214,0.04335341099204626
0.65375,0.63875,0.69375,0.6225,0.73875,0.57375,0.93625,0.89125,0.8225,0.7925,0.7875,0.8,0.47058508194210447,0.48708837494256396,0.5143666717720937,0.4584124424175675,0.5850333250272433,0.19460184265683855,0.48802359377849214,0.04335341099204626
0.65375,0.63875,0.69375,0.6225,0.73875,0.57375,0.93625,0.89125,0.8225,0.7925,0.7875,0.8,0.4776152550160821,0.4865369888191147,0.5137923112268341,0.46671379604067387,0.6029892927254825,0.18457743858878842,0.38645648271263694,0.0031875993407018844
0.65375,0.63875,0.6934999999999999,0.6225,0.73925,0.5742499999999999,0.9372499999999999,0.892,0.8234999999999999,0.7929999999999999,0.7877500000000001,0.80025,0.4848904885893705,0.4863225608822178,0.5131720018379538,0.473823470672763,0.6090284768315687,0.18457743858878842,0.38645648271263694,0.0031875993407018844
0.65375,0.63875,0.69325,0.6225,0.7397499999999999,0.57475,0.93825,0.89275,0.8245,0.7935,0.7879999999999999,0.8005,0.4918364221167101,0.4863531934446316,0.5129345994792465,0.4802666130119365,0.6040193877282827,0.18961360102952646,0.37955355548165964,0.006379781524335254
0.65375,0.63875,0.693,0.6225,0.7402500000000001,0.57525,0.9392499999999999,0.8935,0.8255,0.794,0.78825,0.8007500000000001,0.49639301577576966,0.4866365446469597,0.5128427017920049,0.48598262995108465,0.5875984631795915,0.1904485154957972,0.3815281993864328,0.004424324839086128
0.65375,0.63875,0.6927500000000001,0.6225,0.74075,0.57575,0.94025,0.89425,0.8265,0.7945,0.7885,0.8009999999999999,0.4997089906570685,0.48664420278756315,0.5121534691376933,0.4926883458762348,0.5624924242401507,0.1904485154957972,0.3815281993864328,0.004424324839086128
0.65375,0.63875,0.6925,0.6225,0.74125,0.57625,0.94125,0.895,0.8275,0.795,0.78875,0.80125,0.5011870117935365,0.4864604074130801,0.5109281666411395,0.49838416471813674,0.5347808517633656,0.1946390994311176,0.38251552745670014,0.006881008695797451
0.65375,0.63875,0.6925,0.6225,0.74125,0.57625,0.94125,0.895,0.8275,0.795,0.78875,0.80125,0.500896002450605,0.4859549701332516,0.5098177362536376,0.5024843465728597,0.5098363966344477,0.1946390994311176,0.38251552745670014,0.006881008695797451
0.65375,0.63875,0.6925,0.6225,0.74125,0.57625,0.94125,0.895,0.8275,0.795,0.78875,0.80125,0.5000612651248277,0.4852121304947159,0.5084852197886354,0.5054332457495206,0.4902847909223513,0.18626858523612597,0.37955355548165964,0.005163638591622099
0.65375,0.63875,0.693,0.6225,0.7415,0.5760000000000001,0.94125,0.8955,0.8270000000000001,0.79425,0.7879999999999999,0.80125,0.49827691836422117,0.4851049165262674,0.50756624291622,0.5070086850343296,0.47416683564079,0.19043787218364572,0.3795566878366142,0.005895047636346912
0.65375,0.63875,0.6934999999999999,0.6225,0.74175,0.57575,0.94125,0.8959999999999999,0.8265,0.7935,0.7872499999999999,0.80125,0.49670699954051156,0.4853882677285955,0.5071297289018226,0.5064229447355226,0.46562310743716856,0.19043787218364572,0.3795566878366142,0.005895047636346912
0.65375,0.63875,0.6940000000000001,0.6225,0.742,0.5755,0.94125,0.8965000000000001,0.826,0.7927500000000001,0.7865000000000001,0.80125,0.4951830295604227,0.4862842701792005,0.5078266196967376,0.5066653200860464,0.45970511148019577,0.19127811348774099,0.3765967959410357,0.006133053762379416
0.65375,0.63875,0.6945,0.6225,0.74225,0.57525,0.94125,0.897,0.8255,0.792,0.7857500000000001,0.80125,0.4934369735028335,0.4872951447388574,0.5091974268647572,0.5084629367425958,0.45497879356653737,0.1929639332972539,0.38152715934670184,0.007117295868927592
0.65375,0.63875,0.695,0.6225,0.7425,0.575,0.94125,0.8975,0.825,0.79125,0.785,0.80125,0.49064175218257006,0.4884132332669628,0.5120156226068311,0.5108260954624992,0.44762674326802354,0.1929639332972539,0.38152715934670184,0.007117295868927592
0.65375,0.63875,0.695,0.6225,0.7425,0.575,0.94125,0.8975,0.825,0.79125,0.785,0.80125,0.4883289937203247,0.4889263286873947,0.5152626742226988,0.512320742930894,0.44025449489200735,0.19127811348774099,0.3834986831322821,0.004657564003919361
0.65375,0.63875,0.695,0.6225,0.7425,0.575,0.94125,0.8975,0.825,0.79125,0.785,0.80125,0.4858247817429928,0.48964619390412006,0.5191989584928779,0.5128862851521986,0.4298525563718999,0.18627390171045283,0.37757995161661756,0.004418479470890532
0.65375,0.63925,0.69475,0.6225,0.74275,0.575,0.9415,0.8975,0.82525,0.7909999999999999,0.785,0.8015000000000001,0.4827615255016082,0.4910859243375708,0.5239699800888344,0.5113310437671976,0.41407796461706736,0.18876270604978196,0.38152715934670184,0.008589261077692228
0.65375,0.63975,0.6945,0.6225,0.743,0.575,0.94175,0.8975,0.8255,0.7907500000000001,0.785,0.80175,0.47905498544953284,0.4929391943636085,0.529820799509879,0.5086245198225976,0.39664714314307836,0.19211836515533398,0.38152923942616385,0.006136858357507257
0.65375,0.6402500000000001,0.6942499999999999,0.6225,0.7432500000000001,0.575,0.9420000000000001,0.8975,0.82575,0.7905,0.785,0.802,0.4756241384591821,0.49516005513861233,0.5356180119466993,0.5049484950287293,0.3788325613555539,0.18457743858878842,0.37955459552139065,0.005157804053912976
0.65375,0.64075,0.6940000000000001,0.6225,0.7434999999999999,0.575,0.9422499999999999,0.8975,0.826,0.79025,0.785,0.8022499999999999,0.4720094960943483,0.49776382294378924,0.5416143360392097,0.5013330639540291,0.3607352077465999,0.18540172010640538,0.38645752275236794,0.006866532977206264
0.65375,0.64125,0.69375,0.6225,0.74375,0.575,0.9425,0.8975,0.82625,0.79,0.785,0.8025,0.46820340021442797,0.50059733496707,0.5484224230356869,0.49814178966377015,0.34366794914044607,0.19294796314727777,0.3854691668781312,0.007364486247371106
0.65375,0.64125,0.69375,0.6225,0.74375,0.575,0.9425,0.8975,0.82625,0.79,0.785,0.8025,0.46537754633175066,0.5023816817276765,0.5537754633175065,0.4962835793275403,0.33296304261681264,0.1921077218431825,0.3844849589270568,0.005399101100578497
0.65375,0.64125,0.69375,0.6225,0.74375,0.575,0.9425,0.8975,0.82625,0.79,0.785,0.8025,0.46344769489967835,0.5039056517077654,0.5586230663194977,0.49440517095329567,0.32361139780880965,0.1921077218431825,0.3844849589270568,0.005399101100578497
0.65375,0.64125,0.69375,0.6225,0.74375,0.575,0.9425,0.8975,0.82625,0.79,0.785,0.8025,0.46198499004441723,0.5052917751569919,0.5632332669627814,0.4930317111206752,0.31625934814209783,0.18792778122001355,0.3844870390065188,0.005644295575112057
0.6545000000000001,0.6417499999999999,0.6942499999999999,0.623,0.74425,0.57525,0.9420000000000001,0.89775,0.8265,0.79025,0.7857500000000001,0.8027500000000001,0.461035380609588,0.5067927707152703,0.5675601164037372,0.4925267626580263,0.31112907310100546,0.19461248596899006,0.38251344737723814,0.005161350264581107
0.6552500000000001,0.64225,0.69475,0.6235,0.7447499999999999,0.5755,0.9415,0.898,0.82675,0.7905,0.7865000000000001,0.8029999999999999,0.45977178741001684,0.5088757849594119,0.5721473426252106,0.4955968494309739,0.3135528247108369,0.19128344032556557,0.3765978359807667,0.005397349656217105
0.6559999999999999,0.64275,0.69525,0.624,0.7452500000000001,0.57575,0.941,0.89825,0.8270000000000001,0.7907500000000001,0.7872499999999999,0.80325,0.45820952672691073,0.5110813294532087,0.5784499923418593,0.5007675217327245,0.3216320001132189,0.19128344032556557,0.3765978359807667,0.005397349656217105
0.65675,0.64325,0.69575,0.6245,0.74575,0.5760000000000001,0.9405,0.8985,0.8272499999999999,0.7909999999999999,0.7879999999999999,0.8035,0.44509879001378466,0.5169704395772706,0.5855644049624751,0.5070086850343296,0.33401333506531317,0.1921077218431825,0.3785693597663468,0.006633055541673659
0.6575,0.64375,0.69625,0.625,0.74625,0.57625,0.94,0.89875,0.8275,0.79125,0.78875,0.80375,0.42238474498391787,0.5248276918364221,0.6045029866748354,0.4784084018859542,0.2982427843159454,0.18790115739438834,0.3844849589270568,0.00759869087270052
0.6575,0.64375,0.69625,0.625,0.74625,0.57625,0.94,0.89875,0.8275,0.79125,0.78875,0.80375,0.39968601623525807,0.5321641905345382,0.6228136008577118,0.4495051496283993,0.2630175772365284,0.18790115739438834,0.3844849589270568,0.00759869087270052
0.6575,0.64375,0.69625,0.625,0.74625,0.57625,0.94,0.89875,0.8275,0.79125,0.78875,0.80375,0.39183642211671005,0.5245749731965079,0.6288788482156532,0.449949504174442,0.2329024528069193,0.18707688624026905,0.38251656749643115,0.004421276830789298
0.657,0.64325,0.69625,0.625,0.74575,0.57625,0.93975,0.8985,0.8270000000000001,0.79125,0.7885,0.80425,0.3945320876091285,0.521090519221933,0.6344080257313525,0.44986871249623445,0.18464957482253946,0.19125150002561345,0.3854712469575931,0.0051600707199813325
0.6565000000000001,0.64275,0.69625,0.625,0.7452500000000001,0.57625,0.9395,0.89825,0.8265,0.79125,0.78825,0.80475,0.4142900903660591,0.5142211671006279,0.6359396538520448,0.4565744277895826,0.12914563692715775,0.18958697720390116,0.3844839188873258,0.006621886215838855
0.6559999999999999,0.64225,0.69625,0.625,0.7447499999999999,0.57625,0.9392499999999999,0.898,0.826,0.79125,0.7879999999999999,0.80525,0.44305406647266043,0.5077576964313065,0.6263899525195282,0.4898202368575079,0.12900424975283903,0.18792245438218896,0.3854702069178622,0.006132560201645086
0.6555,0.6417499999999999,0.69625,0.625,0.74425,0.57625,0.9390000000000001,0.89775,0.8255,0.79125,0.7877500000000001,0.8057500000000001,0.47470516158676673,0.5030326236789707,0.6199417981314137,0.5195314066079159,0.13415472476683976,0.18792245438218896,0.3854702069178622,0.006132560201645086
0.655,0.64125,0.69625,0.625,0.74375,0.57625,0.93875,0.8975,0.825,0.79125,0.7875,0.80625,0.49491499463930155,0.5091897687241538,0.6249272476642671,0.5156332043435881,0.14435468251192335,0.1887573792119574,0.3844849589270568,0.006878726557605728
0.655,0.64125,0.69625,0.625,0.74375,0.57625,0.93875,0.8975,0.825,0.79125,0.7875,0.80625,0.5034385051309542,0.5107443712666565,0.6338489814672997,0.5060795790764622,0.17085437823608973,0.18960294735387723,0.37955563556112165,0.007115269020770905
0.655,0.64125,0.69625,0.625,0.74375,0.57625,0.93875,0.8975,0.825,0.79125,0.7875,0.80625,0.5003446163271558,0.47828151324858326,0.6273472200949609,0.46412846083750153,0.2234094182973897,0.19043787218364572,0.386453362593444,0.0076091268198890906
0.655,0.64125,0.69625,0.625,0.74375,0.57625,0.93875,0.8975,0.825,0.79125,0.7875,0.80625,0.49887425333129115,0.48005054372798284,0.6120922040128657,0.4607554050343498,0.2866087712816179,0.1887520523741328,0.38251344737723814,0.005896543790673346
0.6535,0.63875,0.69525,0.6235,0.74225,0.5725,0.9357500000000001,0.8935,0.82475,0.7907500000000001,0.7859999999999999,0.804,0.4955429621687854,0.47567774544340635,0.6019145351508653,0.46251262577282015,0.3457685346692492,0.1887520523741328,0.38251344737723814,0.005896543790673346
0.652,0.63625,0.6942499999999999,0.622,0.74075,0.56875,0.9327500000000001,0.8895000000000001,0.8245,0.79025,0.7845,0.80175,0.4898376474192066,0.4735411242150406,0.5909863685097259,0.46471420121528373,0.3912138975712521,0.192958616822927,0.3854722869973241,0.006130038245541693
0.6505,0.63375,0.69325,0.6204999999999999,0.73925,0.565,0.92975,0.8855,0.8242499999999999,0.78975,0.7829999999999999,0.7995,0.48672844233420126,0.4714887425333129,0.5745366824934905,0.4730357522840905,0.43585134495478317,0.18793309769434044,0.37955355548165964,0.007614706067563334
0.649,0.63125,0.6922499999999999,0.619,0.73775,0.56125,0.92675,0.8815000000000001,0.8240000000000001,0.78925,0.7815000000000001,0.7972499999999999,0.4902358707305866,0.5036146423648338,0.5749808546484914,0.507715612850448,0.4609169872851115,0.1904272288714942,0.38054400367111996,0.004413893533534372
0.6475,0.62875,0.69125,0.6175,0.73625,0.5575,0.92375,0.8775,0.82375,0.78875,0.78,0.795,0.4926941338642977,0.4990350742839639,0.5820876091285037,0.5124015348460274,0.4699252687243362,0.1870822130780937,0.3815281993864328,0.005407239437452134
0.6475,0.62875,0.69125,0.6175,0.73625,0.5575,0.92375,0.8775,0.82375,0.78875,0.78,0.795,0.49412620615714503,0.4988589370500842,0.581015469444019,0.515491819617502,0.4776812775718384,0.19128344032556557,0.3834986831322821,0.005398098506986549
0.6475,0.62875,0.69125,0.6175,0.73625,0.5575,0.92375,0.8775,0.82375,0.78875,0.78,0.795,0.4945933527339562,0.49950987900137844,0.5795374483075509,0.5196727929135068,0.4830943250661623,0.22544605763686204,0.2829594861577257,0.054155801496989876
0.6475,0.62875,0.69125,0.6175,0.73625,0.5575,0.92375,0.8775,0.82375,0.78875,0.78,0.795,0.4940572828917139,0.5006892326543115,0.5782508806861694,0.5219147640371237,0.48499293139944644,0.20703517958734194,0.333241051219791,0.05707948199949969
0.6467499999999999,0.62825,0.69075,0.61725,0.7347499999999999,0.5579999999999999,0.9177500000000001,0.872,0.8177500000000001,0.7767499999999999,0.7735,0.7759999999999999,0.4933986827998162,0.501209986215347,0.5777760759687548,0.5226822856118977,0.48473035797142033,0.20703517958734194,0.333241051219791,0.05707948199949969
0.6459999999999999,0.62775,0.69025,0.617,0.7332500000000001,0.5585,0.91175,0.8665,0.81175,0.7647499999999999,0.767,0.757,0.4931612804411089,0.501577576964313,0.5775233573288405,0.522540900017084,0.4838618464829858,0.20703517958734194,0.333241051219791,0.05707948199949969
0.6452500000000001,0.62725,0.68975,0.61675,0.73175,0.5589999999999999,0.90575,0.861,0.8057500000000001,0.75275,0.7605,0.738,0.4929621687854189,0.5019604839944861,0.5773165875325471,0.5216521906090975,0.48343768985649505,0.2279029113127413,0.45161033450528676,0.14289139172832438
0.6445000000000001,0.6267499999999999,0.6892499999999999,0.6164999999999999,0.7302500000000001,0.5595,0.8997499999999999,0.8554999999999999,0.79975,0.74075,0.754,0.7190000000000001,0.4935058967682647,0.5022438351968143,0.577331903813754,0.5201171474595495,0.48339729401739123,0.2279029113127413,0.45161033450528676,0.14289139172832438
0.64375,0.62625,0.68875,0.61625,0.72875,0.56,0.89375,0.85,0.79375,0.72875,0.7475,0.7,0.4939730433450758,0.5023204166028489,0.5777760759687548,0.518198343364664,0.48418501366966765,0.1592475992879821,0.5600574674565144,0.14770694003639354
0.64375,0.62625,0.68875,0.61625,0.72875,0.56,0.89375,0.85,0.79375,0.72875,0.7475,0.7,0.4941951294225762,0.5024123142900904,0.5780747434522898,0.5162997373472809,0.48531609827022726,0.2494884707072473,0.4960148063482116,0.20545328602370608
0.64375,0.62625,0.68875,0.61625,0.72875,0.56,0.89375,0.85,0.79375,0.72875,0.7475,0.7,0.49431000153162813,0.5025348445397457,0.5783044876703937,0.5141587556634729,0.4868915375747801,0.23012552921330623,0.415177253298385,0.2403682612907433
0.64325,0.62575,0.688,0.61575,0.72775,0.56025,0.8915000000000001,0.8490000000000001,0.78925,0.727,0.745,0.68825,0.49445550620309386,0.502488895696125,0.578427017920049,0.5125631184393682,0.4882447994483611,0.5585963197830912,0.44400839045323304,0.48347999152746524
0.64275,0.62525,0.6872499999999999,0.61525,0.72675,0.5605,0.88925,0.848,0.78475,0.7252500000000001,0.7425,0.6765000000000001,0.4945167713279216,0.5025807933833665,0.5784959411854802,0.511068470813023,0.48994142627022524,0.5936897139145056,0.4499520951582027,0.511348932431226
0.64225,0.62475,0.6865000000000001,0.61475,0.72575,0.5607500000000001,0.887,0.847,0.7802500000000001,0.7234999999999999,0.74,0.66475,0.4944478480624904,0.502703323633022,0.5784117016388421,0.509533427347574,0.49143607373861997,0.5936897139145056,0.4499520951582027,0.511348932431226
0.6417499999999999,0.62425,0.6857500000000001,0.61425,0.7247499999999999,0.561,0.8847499999999999,0.846,0.77575,0.72175,0.7375,0.653,0.4944784806249043,0.5028028794608669,0.5783351202328075,0.5080387797212288,0.49278933577015144,0.7254744484388473,0.4018158873459307,0.725384224653993
0.6409999999999999,0.6235,0.685,0.6135,0.723,0.561,0.88225,0.8447499999999999,0.7717499999999999,0.7184999999999999,0.7352500000000001,0.63925,0.49460101087455965,0.5026190840863838,0.5781972737019452,0.5052716621364358,0.4951726926465326,0.7254744484388473,0.4018158873459307,0.725384224653993
0.64075,0.6232500000000001,0.685,0.6132500000000001,0.72225,0.5607500000000001,0.882,0.8445,0.77225,0.7170000000000001,0.7354999999999999,0.63725,0.4945933527339562,0.5025807933833665,0.5781819574207383,0.5026661279870334,0.4972126844561676,0.7388172444746728,0.3988809931111805,0.7546933386474919
0.6405,0.623,0.685,0.613,0.7215,0.5605,0.8817499999999999,0.84425,0.77275,0.7155,0.73575,0.63525,0.49445550620309386,0.5025271863991423,0.5780977178741001,0.5002827711106523,0.49894970723559845,0.7388172444746728,0.3988809931111805,0.7546933386474919
0.6402500000000001,0.62275,0.685,0.61275,0.72075,0.56025,0.8815000000000001,0.8440000000000001,0.77325,0.7140000000000001,0.736,0.63325,0.49432531781283506,0.5024276305712972,0.5780364527492725,0.4983437689382644,0.5007675217327245,0.7695816294318113,0.3654276012620306,0.8379992084461702
0.64,0.6225,0.685,0.6125,0.72,0.56,0.88125,0.84375,0.77375,0.7125,0.73625,0.63125,0.49422576198499,0.5022821258998316,0.5779368969214275,0.49648555852305926,0.5025045444726678,0.7695816294318113,0.3654276012620306,0.8379992084461702
0.64,0.6225,0.685,0.6125,0.72,0.56,0.88125,0.84375,0.77375,0.7125,0.73625,0.63125,0.4940725991729208,0.5023051003216419,0.5778986062184102,0.4967279337946077,0.502363158877854,0.7795581126864354,0.3516425720662189,0.8602344413488163
0.6402500000000001,0.62275,0.68525,0.61275,0.7202500000000001,0.56025,0.88125,0.8434999999999999,0.77275,0.713,0.7365,0.63225,0.4939730433450758,0.5023204166028489,0.5778603155153929,0.49725308023604,0.5021813774241926,0.8037229704823025,0.3240922866652456,0.9201150924838435
0.6405,0.623,0.6855,0.613,0.7204999999999999,0.5605,0.88125,0.84325,0.7717499999999999,0.7134999999999999,0.73675,0.63325,0.4940496247511104,0.5023357328840558,0.5778373410935824,0.497778226697216,0.501737022759687,0.8037229704823025,0.3240922866652456,0.9201150924838435
0.64075,0.6232500000000001,0.6857500000000001,0.6132500000000001,0.72075,0.5607500000000001,0.88125,0.843,0.77075,0.7140000000000001,0.737,0.63425,0.4941568387195589,0.5022591514780211,0.5776841782815132,0.4983033731189044,0.5010704907629286,0.8129124497205841,0.31523138063671396,0.9328004759844021
0.6409999999999999,0.6235,0.6859999999999999,0.6135,0.721,0.561,0.88125,0.8427500000000001,0.7697499999999999,0.7145,0.73725,0.63525,0.4942334201255935,0.50219022821259,0.577645887578496,0.49882851954059276,0.5005251464019446,0.8345831763392975,0.26105048637947453,0.9816704462485282
0.64125,0.62375,0.68625,0.61375,0.72125,0.56125,0.88125,0.8425,0.76875,0.715,0.7375,0.63625,0.49428702710981776,0.502205544493797,0.577730127125134,0.4994142597604245,0.5001009896964785,0.8312275172337454,0.25217188743975466,0.9772895748678254
0.64125,0.62375,0.68625,0.61375,0.72125,0.56125,0.88125,0.8425,0.76875,0.715,0.7375,0.63625,0.49431765967223157,0.5022361770562107,0.5777148108439271,0.49991920824281716,0.49985861442493007,0.8069881355258225,0.24920159514686627,0.9645781904640042
0.64125,0.62375,0.68625,0.61375,0.72125,0.56125,0.88125,0.8425,0.76875,0.715,0.7375,0.63625,0.4941874712819727,0.5021978863531934,0.5777990503905652,0.5004039587859141,0.49961623915338155,0.8003353710767983,0.2531342178491937,0.9530870924275249
0.64125,0.62375,0.68625,0.61375,0.72125,0.56125,0.88125,0.8425,0.76875,0.715,0.7375,0.63625,0.4940879154541277,0.5023357328840558,0.5779598713432379,0.5007877196325325,0.4994950515176073,0.8003353710767983,0.2531342178491937,0.9530870924275249
0.6415000000000001,0.62375,0.68625,0.6135,0.7215,0.56175,0.88125,0.8427500000000001,0.76925,0.7145,0.73675,0.6367499999999999,0.4940343084699035,0.5023127584622453,0.578044110889876,0.5011916784184467,0.4992324783067631,0.7819297887746096,0.24031153129858251,0.9423263776339934
0.6417499999999999,0.62375,0.68625,0.6132500000000001,0.72175,0.56225,0.88125,0.843,0.7697499999999999,0.7140000000000001,0.736,0.63725,0.49398835962628274,0.5023357328840558,0.5779981620462552,0.501575439284809,0.499030498913806,0.756036527557126,0.2432443576896323,0.9156911467117792
0.642,0.62375,0.68625,0.613,0.722,0.56275,0.88125,0.84325,0.7702500000000001,0.7134999999999999,0.7352500000000001,0.63775,0.49391943636085156,0.502274467759228,0.5780670853116863,0.5018986063135403,0.49878812364225755,0.6608819384226046,0.2116011366386212,0.7957143703689034
0.64225,0.62375,0.68625,0.61275,0.72225,0.56325,0.88125,0.8434999999999999,0.77075,0.713,0.7345,0.63825,0.49396538520447236,0.5022132026344004,0.5781053760147037,0.5023833568566373,0.49878812364225755,0.6608819384226046,0.2116011366386212,0.7957143703689034
0.6425,0.62375,0.68625,0.6125,0.7225,0.56375,0.88125,0.84375,0.77125,0.7125,0.73375,0.63875,0.4939960177668862,0.5020523816817277,0.5781130341553071,0.5028479094604386,0.498687133945779,0.6558830431196433,0.20863605678014935,0.7898614579660315
0.6425,0.62375,0.68625,0.6125,0.7225,0.56375,0.88125,0.84375,0.77125,0.7125,0.73375,0.63875,0.4939347526420585,0.5021672537907796,0.578227906264359,0.5035952332341236,0.4985659463100048,0.5882596038351948,0.20466907605941476,0.7453505139916731
0.6425,0.62375,0.68625,0.61225,0.72225,0.5635,0.8795000000000001,0.84325,0.7705,0.71375,0.7334999999999999,0.63775,0.4939117782202481,0.5020600398223312,0.5783198039516005,0.5042011713735072,0.4983639669170477,0.5815695722483937,0.2036827880288784,0.7463301005363101
0.6425,0.62375,0.68625,0.612,0.722,0.56325,0.87775,0.8427500000000001,0.7697499999999999,0.715,0.7332500000000001,0.6367499999999999,0.494041966610507,0.5021059886659519,0.5782585388267729,0.5048071095128908,0.4981417895847949,0.5731990476899044,0.2076268756397697,0.7492610776921843
0.6425,0.62375,0.68625,0.61175,0.72175,0.563,0.8759999999999999,0.8422499999999999,0.769,0.71625,0.733,0.63575,0.49410323173533466,0.5021442793689692,0.5783044876703937,0.5053726518131706,0.4978186225560636,0.5698593587343285,0.20763728827284111,0.7541376944710522
0.6425,0.62375,0.68625,0.6114999999999999,0.7215,0.56275,0.87425,0.84175,0.76825,0.7175,0.73275,0.63475,0.4940725991729208,0.5022438351968143,0.5782432225455659,0.5055948291651672,0.497636841122146,0.5698593587343285,0.20763728827284111,0.7541376944710522
0.64275,0.624,0.68625,0.6114999999999999,0.72125,0.5625,0.873,0.8405,0.7675,0.71875,0.73275,0.63375,0.4940879154541277,0.5022668096186246,0.5780747434522898,0.5054332456508015,0.49757624732400274,0.56902443390456,0.2155296114177862,0.7565765699138062
0.643,0.62425,0.68625,0.61175,0.72125,0.5625,0.8734999999999999,0.83975,0.7675,0.71875,0.733,0.63375,0.4941108898759381,0.5024276305712972,0.5780134783274621,0.5055140374079844,0.49773783083836837,0.56902443390456,0.2155296114177862,0.7565765699138062
0.64325,0.6245,0.68625,0.612,0.72125,0.5625,0.8740000000000001,0.8390000000000001,0.7675,0.71875,0.7332500000000001,0.63375,0.4941568387195589,0.5025501608209527,0.5779905039056517,0.5055140374079844,0.4979802061099169,0.5589787328487092,0.21947889922733246,0.7629245995466358
0.6435,0.62475,0.68625,0.61225,0.72125,0.5625,0.8745,0.83825,0.7675,0.71875,0.7334999999999999,0.63375,0.4940725991729208,0.5026420585081942,0.5779598713432379,0.5053928497327225,0.49826297726005675,0.5598243113541268,0.2244103026727296,0.7675714506523589
0.64375,0.625,0.68625,0.6125,0.72125,0.5625,0.875,0.8375,0.7675,0.71875,0.73375,0.63375,0.4940802573135243,0.5026726910706081,0.5780364527492725,0.5056150270057438,0.4984043628153829,0.5581331647067894,0.23033006199236347,0.7697568199959246
0.64375,0.625,0.68625,0.6125,0.72125,0.5625,0.875,0.8375,0.7675,0.71875,0.73375,0.63375,0.49412620615714503,0.5026803492112115,0.5779981620462552,0.5056756207643995,0.4986669360064833,0.5581331647067894,0.22935939902931504,0.784430450252714
0.64375,0.625,0.68625,0.6125,0.72125,0.5625,0.875,0.8375,0.7675,0.71875,0.73375,0.63375,0.4942563945474039,0.5027109817736254,0.5778373410935824,0.50537265165522,0.499171884488876,0.5857920964836663,0.25503911791318307,0.8098205017083544
0.64375,0.625,0.68625,0.6125,0.72125,0.5625,0.875,0.8375,0.7675,0.71875,0.73375,0.63375,0.4941568387195589,0.5027799050390566,0.5778220248123755,0.505069682625016,0.499919208262561,0.5857920964836663,0.25503911791318307,0.8098205017083544
0.64375,0.625,0.68625,0.6125,0.72125,0.5625,0.875,0.8375,0.7675,0.71875,0.73375,0.63375,0.49417215500076583,0.5028258538826773,0.5777837341093582,0.5048273074324426,0.5007473237934288,0.5933383498880364,0.2599715613983112,0.8127525588184371
0.64325,0.6245,0.6859999999999999,0.61275,0.7204999999999999,0.562,0.87425,0.8375,0.7675,0.7177500000000001,0.73375,0.63375,0.4941874712819727,0.5028488283044876,0.5777454434063409,0.5046253280789732,0.5015350434062176,0.6402590754211734,0.2925354745622371,0.8227866624726896
0.64275,0.624,0.6857500000000001,0.613,0.7197499999999999,0.5615,0.8734999999999999,0.8375,0.7675,0.71675,0.73375,0.63375,0.4942717108286108,0.5029637004135395,0.5777607596875478,0.504302161050242,0.5022217733422717,0.6419342415550371,0.2984510737229471,0.8242688624910396
0.64225,0.6235,0.6855,0.6132500000000001,0.7190000000000001,0.561,0.87275,0.8375,0.7675,0.71575,0.73375,0.63375,0.49424873640680045,0.5029713585541431,0.5779522132026345,0.5039789940609982,0.5028479094604386,0.6402750455711494,0.31324216393994553,0.8313490825108222
0.6417499999999999,0.623,0.68525,0.6135,0.71825,0.5605,0.872,0.8375,0.7675,0.71475,0.73375,0.63375,0.49421044570378314,0.5029560422729361,0.5780824015928933,0.5034134517409746,0.503635629112715,0.6486455701296389,0.31620412367922446,0.8320804977443963
0.64125,0.6225,0.685,0.61375,0.7175,0.56,0.87125,0.8375,0.7675,0.71375,0.73375,0.63375,0.49424107826619695,0.5029637004135395,0.5781206922959106,0.5020803877079703,0.5051302766600849,0.6620256333032408,0.32607422308389716,0.8364718979050281
0.64075,0.622,0.68475,0.6132500000000001,0.7172499999999999,0.55825,0.87075,0.8370000000000001,0.7685,0.71475,0.7347499999999999,0.637,0.4941874712819727,0.5032164190534538,0.5781819574207383,0.5001413855355823,0.5071298727490791,0.7206565723504431,0.3753913654212998,0.8509844107526923
0.6402500000000001,0.6214999999999999,0.6845,0.61275,0.7170000000000001,0.5565,0.8702500000000001,0.8365,0.7695000000000001,0.71575,0.73575,0.6402500000000001,0.49428702710981776,0.503369581865523,0.5783657527952213,0.4977984246562555,0.5096748132582888,0.7248365026101143,0.3753934455007618,0.8541765975779628
0.63975,0.621,0.68425,0.61225,0.71675,0.55475,0.8697499999999999,0.836,0.7705,0.71675,0.73675,0.6435,0.4942181038443866,0.50358400980242,0.5784729667636698,0.49497071319434405,0.5128256917094439,0.7248365026101143,0.3753934455007618,0.8541765975779628
0.63925,0.6204999999999999,0.684,0.61175,0.7165,0.5529999999999999,0.86925,0.8355,0.7715000000000001,0.7177500000000001,0.73775,0.6467499999999999,0.4943329759534385,0.5035227446775923,0.5786491039975494,0.49175924084632655,0.5167440918933235,0.7382165657837164,0.3822911725330842,0.8537159460499437
0.63875,0.61975,0.684,0.611,0.71575,0.54975,0.87,0.8340000000000001,0.77875,0.72375,0.743,0.6679999999999999,0.4938964619390412,0.5029713585541431,0.5802879460866901,0.4937184410172416,0.5273076144016482,0.74240183324471,0.3862373279876759,0.8546940844038365
0.63875,0.6195,0.68425,0.61075,0.71525,0.54825,0.87125,0.833,0.785,0.72875,0.74725,0.6859999999999999,0.49432531781283506,0.5018762444478481,0.583887272170317,0.49680872570974105,0.5385174703356335,0.7457574923502619,0.3882078117335251,0.8593707379135251
0.63875,0.61925,0.6845,0.6104999999999999,0.71475,0.54675,0.8725,0.8320000000000001,0.79125,0.73375,0.7515000000000001,0.7040000000000001,0.49448613876550773,0.5033619237249196,0.5901669474651554,0.5031306806895537,0.5524540484101841,0.7818135621477558,0.44143261581971144,0.8472440048229702
