C0,C1,C2,C3,C4,C5,C6,C7,C8,C9,C10,C11,Ax,Ay,Az,Gr,Gp,Fx_norm,Fy_norm,Fz_norm
0.6475,0.64125,0.69375,0.62,0.7125,0.605,0.885,0.82625,0.77375,0.72625,0.76,0.72375,0.4979282980441729,0.5027095988857286,0.5356285918278966,0.5000816443150641,0.49956116180653076,0.07778019836990754,0.4527392701444318,0.002584681686891343
0.6475,0.64125,0.69375,0.62,0.7125,0.605,0.885,0.82625,0.77375,0.72625,0.76,0.72375,0.4979370764422908,0.5027520278099652,0.5356359071596615,0.5000688873908353,0.499548404882302,0.07778019836990754,0.4527392701444318,0.002584681686891343
0.6475,0.64125,0.69375,0.62,0.7125,0.605,0.8852500000000001,0.826,0.77375,0.72625,0.76,0.72375,0.49793883212191437,0.502752905649777,0.5356543417957091,0.5000734798835577,0.4996019839640628,0.07778019836990754,0.4527392701444318,0.002584681686891343
0.6475,0.64125,0.69375,0.62,0.7125,0.605,0.8855,0.82575,0.77375,0.72625,0.76,0.72375,0.4979774570736332,0.5027669510867657,0.5356859440289335,0.5000306166181491,0.49966321720036083,0.07778019836990754,0.4527392701444318,0.002584681686891343
0.6475,0.6409999999999999,0.69375,0.61975,0.7125,0.60475,0.8855,0.8255,0.77375,0.72625,0.7602500000000001,0.7240000000000001,0.4979493661996559,0.5028125987569788,0.5357456371361354,0.500061233236298,0.4996693405239906,0.07778019836990754,0.4527392701444318,0.002584681686891343
0.6475,0.64075,0.69375,0.6195,0.7125,0.6045,0.8855,0.82525,0.77375,0.72625,0.7605,0.72425,0.49788265037395973,0.5028652691456863,0.5357421257768882,0.5001592064083893,0.4996815871712502,0.07778019836990754,0.4527392701444318,0.002584681686891343
0.6475,0.6405,0.69375,0.61925,0.7125,0.60425,0.8855,0.825,0.77375,0.72625,0.76075,0.7245,0.4978510481407353,0.5028652691456863,0.5357631939323713,0.5002571795804804,0.49969383381850985,0.07778019836990754,0.4527392701444318,0.002584681686891343
0.6475,0.6402500000000001,0.69375,0.619,0.7125,0.604,0.8852500000000001,0.825,0.77375,0.72625,0.7609999999999999,0.7247499999999999,0.49786158221847676,0.502879314582675,0.5357631939323713,0.5003367827876679,0.4996387239058416,0.07778019836990754,0.4527392701444318,0.002584681686891343
0.6475,0.64,0.69375,0.61875,0.7125,0.60375,0.885,0.825,0.77375,0.72625,0.76125,0.725,0.49783700270374664,0.502879314582675,0.5357842620878542,0.5004041393475958,0.49958361399317336,0.07778019836990754,0.4527392701444318,0.002584681686891343
0.6475,0.64,0.69375,0.61875,0.7125,0.60375,0.885,0.825,0.77375,0.72625,0.76125,0.725,0.49786158221847676,0.5028231328347204,0.5357456371361354,0.5003673994058169,0.49955912069865416,0.07828471173591145,0.45199673719871325,0.0020106511889619767
0.6475,0.64,0.69375,0.61875,0.7125,0.60375,0.885,0.825,0.77375,0.72625,0.76125,0.725,0.49790020717019556,0.5028371782717089,0.5357035008251694,0.5002694262337257,0.49958361399317336,0.07828471173591145,0.45199673719871325,0.0020106511889619767
0.6475,0.64,0.69375,0.61875,0.7125,0.60375,0.885,0.825,0.77375,0.72625,0.76125,0.725,0.4978966958109484,0.5027915306014958,0.5356473190772147,0.5001530830907451,0.49956524402826963,0.07803485993501556,0.4528631137215945,0.0019179231481200466
0.6475,0.6405,0.693,0.61875,0.7122499999999999,0.6035,0.8847499999999999,0.825,0.77375,0.72675,0.76125,0.7254999999999999,0.49790020717019556,0.5027493942905299,0.535650830436462,0.5000551099126682,0.4995713673518994,0.07803485993501556,0.4528631137215945,0.0019179231481200466
0.6475,0.6409999999999999,0.6922499999999999,0.61875,0.7120000000000001,0.6032500000000001,0.8845000000000001,0.825,0.77375,0.72725,0.76125,0.726,0.49790020717019556,0.5027388602127884,0.5356367849994733,0.5000244932945193,0.4996019839700484,0.07803485993501556,0.4528631137215945,0.0019179231481200466
0.6475,0.6415000000000001,0.6915,0.61875,0.71175,0.603,0.88425,0.825,0.77375,0.72775,0.76125,0.7265,0.49794234348116156,0.5027037466203167,0.535671898591945,0.5000183699708894,0.49964484723545705,0.07803485993501556,0.4528631137215945,0.0019179231481200466
0.6475,0.6415000000000001,0.69075,0.61875,0.7115,0.60275,0.88425,0.825,0.77375,0.7282500000000001,0.7609999999999999,0.727,0.4979353207626672,0.5026967239018224,0.5356297622809789,0.5000061233236298,0.4996081072936782,0.07828952462132033,0.4527392701444318,0.0018221207736613908
0.6475,0.6415000000000001,0.69,0.61875,0.71125,0.6025,0.88425,0.825,0.77375,0.72875,0.76075,0.7275,0.498016082025352,0.5027107693388111,0.5356367849994733,0.5000061233236298,0.4996448472294714,0.07778180266504384,0.4527390089585781,0.0012423917181164864
0.6475,0.6409999999999999,0.69,0.61875,0.71125,0.6025,0.8845000000000001,0.825,0.77375,0.72875,0.7605,0.7275,0.49802310474384637,0.502752905649777,0.5356262509217318,0.49998775335274037,0.4996815871712502,0.07778180266504384,0.4527390089585781,0.0012423917181164864
0.6475,0.6405,0.69,0.61875,0.71125,0.6025,0.8847499999999999,0.825,0.77375,0.72875,0.7602500000000001,0.7275,0.4980547069770708,0.5027458829312828,0.5356157168439903,0.4999816300291106,0.49968771049488003,0.07778180266504384,0.4527390089585781,0.0012423917181164864
0.6475,0.6405,0.69,0.61875,0.71125,0.6025,0.8847499999999999,0.825,0.77375,0.7290000000000001,0.7602500000000001,0.7275,0.49803012746234065,0.5028090873977317,0.5356051827662488,0.4998285469323799,0.4998224236147357,0.07778180266504384,0.4527390089585781,0.0012423917181164864
0.6475,0.6409999999999999,0.69,0.61875,0.71125,0.6025,0.8845000000000001,0.825,0.77375,0.72925,0.7605,0.7275,0.4979844797921275,0.5027669510867657,0.5357245689806525,0.499699957136154,0.5,0.07778019836990754,0.4528635055003752,0.0018192320647657959
0.6475,0.6415000000000001,0.69,0.61875,0.71125,0.6025,0.88425,0.825,0.77375,0.7295,0.76075,0.7275,0.4979282980441729,0.5027634397275185,0.5357737280101127,0.49958361399317336,0.5001653297380046,0.07778019836990754,0.4528635055003752,0.0018192320647657959
0.6475,0.642,0.69,0.61875,0.71125,0.6025,0.884,0.825,0.77375,0.7297499999999999,0.7609999999999999,0.7275,0.49790020717019556,0.5027388602127884,0.5357877734471014,0.4994733941738225,0.50031228950512,0.0775335520380875,0.4526151669178028,0.0022047958421518334
0.6475,0.6425,0.69,0.61875,0.71125,0.6025,0.88375,0.825,0.77375,0.73,0.76125,0.7275,0.4978405140629938,0.5027353488535412,0.5357983075248429,0.49936317435447175,0.5004531259486055,0.07702743437694731,0.45286324431452135,0.0017218021376051475
0.6475,0.6425,0.69,0.61875,0.71125,0.6025,0.88375,0.825,0.77375,0.73,0.76125,0.7275,0.49780891182976933,0.5027213034165525,0.5357737280101127,0.49933868105995255,0.5004163860068266,0.07702743437694731,0.45286324431452135,0.0017218021376051475
0.6475,0.6425,0.69,0.61875,0.71125,0.6025,0.88375,0.825,0.77375,0.73,0.76125,0.7275,0.49775273008181464,0.5027283261350469,0.5357070121844166,0.4993080644358179,0.5003796460650478,0.07702743437694731,0.45286324431452135,0.0017218021376051475
0.6475,0.6425,0.68975,0.61925,0.71125,0.6025,0.88375,0.82475,0.77425,0.7304999999999999,0.76225,0.73075,0.49765441202289407,0.5027493942905299,0.5357491484953826,0.4993509276952408,0.5001469597671153,0.07702743437694731,0.45286324431452135,0.0017218021376051475
0.6475,0.6425,0.6895,0.61975,0.71125,0.6025,0.88375,0.8245,0.7747499999999999,0.731,0.76325,0.7340000000000001,0.4976052529934338,0.5027213034165525,0.5357772393693598,0.4994244075728128,0.4999326434340865,0.07853777212707992,0.4528631137215945,0.0017274922025863908
0.6475,0.6425,0.6892499999999999,0.62025,0.71125,0.6025,0.88375,0.8242499999999999,0.7752500000000001,0.7315,0.76425,0.73725,0.4975912075564451,0.5027248147757997,0.5357737280101127,0.49951013409764444,0.49963872391182723,0.07853777212707992,0.4528631137215945,0.0017274922025863908
0.6475,0.6425,0.6890000000000001,0.62075,0.71125,0.6025,0.88375,0.8240000000000001,0.77575,0.732,0.7652500000000001,0.7404999999999999,0.4975947189156923,0.5026932125425753,0.5358509779135503,0.499669340518005,0.4992774478296401,0.07853777212707992,0.4528631137215945,0.0017274922025863908
0.6475,0.6425,0.68875,0.62125,0.71125,0.6025,0.88375,0.82375,0.77625,0.7325,0.76625,0.74375,0.49761227571192806,0.5026405421538678,0.5359949436426841,0.4998959034982933,0.49884881516956825,0.07752874227387536,0.45298695576236975,0.0011474701511581236
0.64775,0.6425,0.6890000000000001,0.62125,0.71125,0.60275,0.88375,0.8234999999999999,0.7767499999999999,0.733,0.7665000000000001,0.746,0.4976684574598827,0.502601917202149,0.5360862389831104,0.5001102198193508,0.4984079358562511,0.07753195086414795,0.452492108434589,0.0015293626840594563
0.648,0.6425,0.6892499999999999,0.62125,0.71125,0.603,0.88375,0.82325,0.77725,0.7334999999999999,0.7667499999999999,0.7482500000000001,0.4977000596931072,0.5026510762316092,0.5361880684012781,0.5004041393595671,0.49778948017562663,0.07753195086414795,0.452492108434589,0.0015293626840594563
0.64825,0.6425,0.6895,0.62125,0.71125,0.6032500000000001,0.88375,0.823,0.77775,0.7340000000000001,0.767,0.7505,0.49761227571192806,0.5024474173952738,0.5363495909266477,0.5007225521823312,0.4971342845651946,0.0772788904729795,0.45323411900859994,0.001723198569330822
0.6485,0.6425,0.68975,0.62125,0.71125,0.6035,0.88375,0.8227500000000001,0.77825,0.7345,0.76725,0.75275,0.4973067874574248,0.5022156676849608,0.5362828751009516,0.5016104341086527,0.494844161563562,0.0772788904729795,0.45323411900859994,0.001723198569330822
0.649,0.643,0.6905,0.62125,0.71175,0.60425,0.885,0.82525,0.7805,0.73725,0.7685,0.7575,0.4971733558060325,0.5023350538993644,0.5366410337441624,0.5018431204065852,0.4920090629085181,0.0772788904729795,0.45323411900859994,0.001723198569330822
0.64925,0.6435,0.691,0.62125,0.7122499999999999,0.60475,0.88625,0.828,0.7822499999999999,0.7395,0.7695000000000001,0.76,0.49702236735840444,0.5025668036096773,0.5370518627760806,0.5019472169262488,0.48904537419986543,0.0772788904729795,0.45323411900859994,0.001723198569330822
0.6495000000000001,0.644,0.6915,0.62125,0.7127500000000001,0.60525,0.8875,0.83075,0.784,0.74175,0.7705,0.7625,0.4969661856104498,0.5032480073036273,0.5372695670494049,0.501990080197643,0.48567142292174326,0.0772788904729795,0.45323411900859994,0.001723198569330822
0.6497499999999999,0.6445000000000001,0.6920000000000001,0.62125,0.71325,0.60575,0.88875,0.8334999999999999,0.7857500000000001,0.7440000000000001,0.7715000000000001,0.765,0.4969240492994838,0.5036904385687699,0.5372239193791917,0.5021309166471142,0.4822239916882357,0.07828631603104776,0.45261555869658354,0.0020151534983746363
0.65,0.645,0.6925,0.62125,0.71375,0.60625,0.89,0.83625,0.7875,0.74625,0.7725,0.7675,0.49742617367182834,0.5040556199304751,0.5377330664700305,0.5018063804767776,0.48042985784674636,0.07854097759615575,0.45298695576236975,0.0019160377833053672
0.65,0.645,0.6925,0.62125,0.71375,0.60625,0.89,0.83625,0.7875,0.74625,0.7725,0.7675,0.4976614347413884,0.5041434039116542,0.537550475789178,0.5022839997318737,0.47911946643434156,0.07778500813411968,0.4524919778416621,0.0015303526825721856
0.65,0.645,0.6925,0.62125,0.71375,0.60625,0.89,0.83625,0.7875,0.74625,0.7725,0.7675,0.49801959338459917,0.5039432564345658,0.5373362828751009,0.5029514420254791,0.47789480175626603,0.07702583320300777,0.4531107993395323,0.0017253920954472587
0.65,0.645,0.6925,0.62125,0.71375,0.60625,0.89,0.83625,0.7875,0.74625,0.7725,0.7675,0.49848660416447205,0.5032374732258857,0.5372765897678992,0.5036801175434114,0.4771048931576626,0.07879082939705163,0.4524919778416621,0.0015299492824429196
0.6502500000000001,0.6452500000000001,0.6925,0.62125,0.7145,0.6065,0.89075,0.8365,0.79,0.74875,0.7725,0.768,0.49910460339197305,0.5032199164296499,0.5378664981214228,0.5043965463781702,0.4753719923968444,0.07879082939705163,0.4524919778416621,0.0015299492824429196
0.65075,0.64575,0.69325,0.62125,0.71525,0.60675,0.89225,0.8375,0.7929999999999999,0.75125,0.7725,0.7685,0.5008918852487798,0.5040661540082165,0.5348151269356368,0.5013532545880287,0.4733145553699194,0.07879082939705163,0.4524919778416621,0.0015299492824429196
0.65125,0.64625,0.6940000000000001,0.62125,0.716,0.607,0.89375,0.8384999999999999,0.7959999999999999,0.75375,0.7725,0.769,0.5028336669124618,0.5056357315916992,0.5325116752694968,0.49821198961981034,0.4721266305019384,0.07803325876107602,0.45360577726023993,0.0020128513878625047
0.6517499999999999,0.64725,0.6945,0.6214999999999999,0.7165,0.6075,0.8952500000000001,0.8395,0.7975,0.7552500000000001,0.77325,0.7665000000000001,0.5046385055655044,0.5073527862635626,0.5301660872923909,0.4949421348374092,0.4711713919917465,0.07803325876107602,0.45360577726023993,0.0020128513878625047
0.65225,0.64825,0.695,0.62175,0.7170000000000001,0.608,0.8967499999999999,0.8405,0.799,0.7567499999999999,0.774,0.764,0.5060395379051231,0.5087292390884511,0.5292917588398469,0.4922478723924105,0.4715449144159252,0.07954359339001188,0.4522440310378705,0.0011474616585238242
0.6525,0.649,0.6955,0.622,0.71675,0.6082500000000001,0.8975,0.84125,0.7979999999999999,0.75575,0.7747499999999999,0.7609999999999999,0.5074405702447418,0.5089434320025282,0.5285649074756839,0.4895229934070762,0.4733635415279912,0.07651811124673127,0.45261595047536424,0.001241594623725724
0.6525,0.6495000000000001,0.69525,0.62225,0.7165,0.6085,0.8975,0.84125,0.7965000000000001,0.7547499999999999,0.7755,0.758,0.5072685136416307,0.5071456160679799,0.5311001088521367,0.49030677883169105,0.4760210641628953,0.07651811124673127,0.45261595047536424,0.001241594623725724
0.6525,0.65,0.695,0.6225,0.71625,0.60875,0.8975,0.84125,0.795,0.75375,0.77625,0.755,0.5073036272341023,0.5041012676006882,0.5320973348783314,0.4908823711690935,0.4783050639905393,0.07651811124673127,0.45261595047536424,0.001241594623725724
0.652,0.65075,0.695,0.6232500000000001,0.7165,0.60975,0.89925,0.84,0.7957500000000001,0.75225,0.774,0.74125,0.5068963095614313,0.5022086449664666,0.5348397064503669,0.4910232076185646,0.4835221357949596,0.07651811124673127,0.45261595047536424,0.001241594623725724
0.6515000000000001,0.6515000000000001,0.695,0.624,0.71675,0.61075,0.9009999999999999,0.83875,0.7965000000000001,0.75075,0.7717499999999999,0.7275,0.5068331050949823,0.5002738860212789,0.5358018188840901,0.49058232836510396,0.48749617296837194,0.07651811124673127,0.45261595047536424,0.001241594623725724
0.6509999999999999,0.65225,0.695,0.62475,0.7170000000000001,0.61175,0.90275,0.8375,0.7972499999999999,0.74925,0.7695000000000001,0.71375,0.5067663892692862,0.4992766599950841,0.5359808982056954,0.49027003883005577,0.49135386703471756,0.07828952462132033,0.45286272194281374,0.0025915789191767054
0.6505,0.653,0.695,0.6255,0.7172499999999999,0.61275,0.9045000000000001,0.83625,0.7979999999999999,0.74775,0.76725,0.7,0.5067172302398258,0.49974367077495696,0.5363215000526704,0.49027616219558506,0.4948502849051487,0.07828952462132033,0.45286272194281374,0.0025915789191767054
0.65,0.65375,0.695,0.62625,0.7175,0.61375,0.90625,0.835,0.79875,0.74625,0.765,0.68625,0.506443344218547,0.5008602830155553,0.5379086344323888,0.49067417827342186,0.4980160431678863,0.07828471173591145,0.45335796104937515,0.002108268560693963
0.65,0.65375,0.695,0.62625,0.7175,0.61375,0.90625,0.835,0.79875,0.74625,0.765,0.68625,0.5065837985884336,0.5009515783559816,0.5376909301590646,0.49163554005337273,0.49803441312081875,0.07627146491491123,0.45273913955150497,0.0020160567506941523
0.65,0.65375,0.695,0.62625,0.7175,0.61375,0.90625,0.835,0.79875,0.74625,0.765,0.68625,0.5066680712103655,0.501471259524562,0.5374240668562801,0.4924560653838525,0.49788745335370344,0.07627146491491123,0.45273913955150497,0.0020160567506941523
0.65,0.654,0.695,0.6265,0.7175,0.614,0.90625,0.8355,0.8,0.7452500000000001,0.7647499999999999,0.6835,0.5068190596579936,0.5019066680712103,0.5368973629692054,0.4930622744531313,0.49772212360971313,0.07627146491491123,0.45273913955150497,0.0020160567506941523
0.65,0.65425,0.695,0.6267499999999999,0.7175,0.61425,0.90625,0.836,0.80125,0.74425,0.7645000000000001,0.6807500000000001,0.5069735594648689,0.5018083500122897,0.5363847045191193,0.494262445812745,0.4987937052509144,0.07627146491491123,0.45273913955150497,0.0020160567506941523
0.65,0.6545000000000001,0.695,0.627,0.7175,0.6145,0.90625,0.8365,0.8025,0.7432500000000001,0.76425,0.6779999999999999,0.5071772183012044,0.5015414867095053,0.5355314442220583,0.49535852072452285,0.5001653297200478,0.079293741589116,0.4527390089585781,0.0019169258702064927
0.65,0.6547499999999999,0.695,0.62725,0.7175,0.61475,0.90625,0.8370000000000001,0.80375,0.74225,0.764,0.67525,0.5074089680115172,0.5011482144738229,0.5347378770321991,0.49632600582211794,0.5017512705222099,0.079293741589116,0.4527390089585781,0.0019169258702064927
0.65,0.6552500000000001,0.695,0.6275,0.7172499999999999,0.615,0.9065000000000001,0.8375,0.805,0.74125,0.76325,0.67325,0.5075248428666737,0.5006741809754556,0.5342181958636188,0.4982609761130784,0.5063805032581691,0.079293741589116,0.4527390089585781,0.0019169258702064927
0.65,0.6555,0.695,0.6275,0.7170000000000001,0.615,0.90675,0.8375,0.805,0.74125,0.76275,0.674,0.5070437866498121,0.5002036588363356,0.535289160434004,0.5005327292096637,0.5106607064574448,0.0770290386720836,0.4522442922237242,0.0018198186631492592
0.65,0.65575,0.695,0.6275,0.71675,0.615,0.907,0.8375,0.805,0.74125,0.76225,0.67475,0.5065908213069279,0.5000667158256962,0.5361880684012781,0.5020268201992784,0.5136305183879711,0.0762650508555628,0.4526152975107297,0.0014327377373071408
0.6502500000000001,0.65575,0.69575,0.627,0.71675,0.61475,0.9077500000000001,0.838,0.80675,0.7440000000000001,0.76375,0.68025,0.5066259348993996,0.498911478633379,0.5373327715158538,0.5037046109097584,0.5173106358834973,0.0762650508555628,0.4526152975107297,0.0014327377373071408
0.6505,0.65575,0.6965,0.6265,0.71675,0.6145,0.9085,0.8384999999999999,0.8085,0.74675,0.7652500000000001,0.6857500000000001,0.5071315706309912,0.49693458337722535,0.5394501211418941,0.5043169432727387,0.5204641473912337,0.0762650508555628,0.4526152975107297,0.0014327377373071408
0.65075,0.6555,0.6972499999999999,0.626,0.7170000000000001,0.61425,0.909,0.8390000000000001,0.81025,0.7495,0.76725,0.6905,0.5084026826784649,0.4940447347168089,0.5422697426173672,0.5017390241024049,0.5194660455138771,0.0762650508555628,0.4526152975107297,0.0014327377373071408
0.6509999999999999,0.6552500000000001,0.698,0.6255,0.7172499999999999,0.614,0.9095,0.8395,0.812,0.75225,0.76925,0.69525,0.5143614593209032,0.4920713508199024,0.5436813090347273,0.49759965725683003,0.5168575097074373,0.0762650508555628,0.4526152975107297,0.0014327377373071408
0.65125,0.655,0.69875,0.625,0.7175,0.61375,0.91,0.84,0.81375,0.755,0.77125,0.7,0.5203202359633414,0.4900979669229959,0.5450928754520875,0.4934602904112551,0.5142489739009976,0.07853616783194363,0.4527392701444318,0.0019165115509759817
0.65125,0.655,0.69875,0.625,0.7175,0.61375,0.91,0.84,0.81375,0.755,0.77125,0.7,0.5275290564977703,0.491551669651322,0.5489623933424629,0.49311738424010093,0.5085481596674927,0.07753034656901166,0.4529868251694428,0.0018205223385627167
0.65125,0.655,0.69875,0.625,0.7175,0.61375,0.91,0.84,0.81375,0.755,0.77125,0.7,0.5295305312686541,0.48910776361529545,0.5506899820920679,0.49570142689567703,0.5068458759258619,0.07753034656901166,0.4529868251694428,0.0018205223385627167
0.65125,0.6545000000000001,0.698,0.6245,0.7175,0.61275,0.91175,0.84175,0.81625,0.76225,0.7775,0.718,0.5348326837318726,0.48661469854980866,0.5501667895642404,0.49601371623918455,0.509564631832978,0.07753034656901166,0.4529868251694428,0.0018205223385627167
0.65125,0.654,0.6972499999999999,0.624,0.7175,0.61175,0.9135,0.8434999999999999,0.81875,0.7695000000000001,0.78375,0.736,0.5377330664700305,0.4831524983321044,0.548667439165701,0.49561570016134776,0.5075194417286523,0.07753034656901166,0.4529868251694428,0.0018205223385627167
0.65125,0.6535,0.6965,0.6235,0.7175,0.61075,0.91525,0.8452500000000001,0.82125,0.7767499999999999,0.79,0.754,0.5413181642613856,0.4799747182134204,0.5466905439095474,0.4941767192220713,0.5047394528366355,0.07753034656901166,0.4529868251694428,0.0018205223385627167
0.65125,0.653,0.69575,0.623,0.7175,0.60975,0.917,0.847,0.82375,0.784,0.79625,0.772,0.5431721619438885,0.4745847817690228,0.5419326521296394,0.4878819423630352,0.5027616191785104,0.07677597828091513,0.45311027543143734,0.0017248904234068007
0.65125,0.652,0.695,0.622,0.7175,0.6085,0.91925,0.8497499999999999,0.82675,0.7922499999999999,0.8029999999999999,0.792,0.5494153586853471,0.47406158924119524,0.5379297025878718,0.47902761633448293,0.4960749496071668,0.07828150626683561,0.4522442922237242,0.0017243972440006464
0.65125,0.6515000000000001,0.695,0.6214999999999999,0.7175,0.6082500000000001,0.91975,0.85075,0.8272499999999999,0.79325,0.8035,0.794,0.5515959127778363,0.4745531795357983,0.5356016714070017,0.4747045499595834,0.48628987814745855,0.07828150626683561,0.4522442922237242,0.0017243972440006464
0.65125,0.6509999999999999,0.695,0.621,0.7175,0.608,0.92025,0.85175,0.8277500000000001,0.79425,0.804,0.7959999999999999,0.5512834018048387,0.4750307243934127,0.5338846167351382,0.4713979555586284,0.4823219643874607,0.07727408070876736,0.452986563983589,0.0012432955770527395
0.65125,0.6505,0.695,0.6204999999999999,0.7175,0.60775,0.9207500000000001,0.85275,0.82825,0.79525,0.8045,0.7979999999999999,0.5499420625724218,0.47529407633695003,0.5321570279855332,0.4681770871258397,0.4787949297851532,0.07727408070876736,0.452986563983589,0.0012432955770527395
0.6509999999999999,0.6497499999999999,0.695,0.62025,0.7175,0.6075,0.9215000000000001,0.85375,0.8284999999999999,0.7977500000000001,0.8059999999999999,0.8007500000000001,0.546532532743425,0.47695846062010605,0.529421679131992,0.46334578485973826,0.4741901907028521,0.07727408070876736,0.452986563983589,0.0012432955770527395
0.65075,0.6495000000000001,0.695,0.6204999999999999,0.7175,0.6075,0.92175,0.85375,0.82825,0.79925,0.807,0.8015000000000001,0.5425155377646687,0.4792654236454932,0.5266231258120019,0.45871042875824974,0.47081011591554506,0.07753034656901166,0.4524919778416621,0.0012409995327079659
0.6505,0.64925,0.695,0.62075,0.7175,0.6075,0.922,0.85375,0.828,0.8007500000000001,0.8079999999999999,0.8022499999999999,0.5380455774430282,0.4821833631798869,0.5236525158889006,0.4538913728401255,0.4677178379673318,0.07753034656901166,0.4524919778416621,0.0012409995327079659
0.6502500000000001,0.649,0.695,0.621,0.7175,0.6075,0.9222499999999999,0.85375,0.8277500000000001,0.8022499999999999,0.809,0.8029999999999999,0.5338565258611608,0.4861020400997226,0.5214895185926472,0.4502112548657474,0.4656604013234882,0.07753034656901166,0.4524919778416621,0.0012409995327079659
0.65,0.64875,0.695,0.62125,0.7175,0.6075,0.9225,0.85375,0.8275,0.80375,0.81,0.80375,0.5296534288423048,0.49040696653674637,0.5198321570279856,0.4482517916872918,0.46398873421796344,0.07828631603104776,0.45261542810365657,0.0022045022396517326
0.65,0.64875,0.695,0.62125,0.7175,0.6075,0.9225,0.85375,0.8275,0.80375,0.81,0.80375,0.5269391481442467,0.4934478036447909,0.5192914077039222,0.4493294963588261,0.4650174527314259,0.07828631603104776,0.45261542810365657,0.0022045022396517326
0.65,0.64875,0.695,0.62125,0.7175,0.6075,0.9225,0.85375,0.8275,0.80375,0.81,0.80375,0.5239369359879209,0.4959970504582324,0.5195793391621897,0.4519380320694955,0.4671483697616216,0.07828631603104776,0.45261542810365657,0.0022045022396517326
0.65,0.6485,0.695,0.62125,0.7175,0.6075,0.9227500000000001,0.8540000000000001,0.8284999999999999,0.80475,0.81025,0.8045,0.5193862144035957,0.49881667193370555,0.5231047438463429,0.46108015436251937,0.47046721089363525,0.07828631603104776,0.45261542810365657,0.0022045022396517326
0.65,0.64825,0.695,0.62125,0.7175,0.6075,0.9229999999999999,0.85425,0.8295,0.8057500000000001,0.8105,0.80525,0.512588222901085,0.5014782822430562,0.5253801046385056,0.47019778348073693,0.4666707503149849,0.07828631603104776,0.45261542810365657,0.0022045022396517326
0.65,0.648,0.695,0.62125,0.7175,0.6075,0.92325,0.8545,0.8305,0.80675,0.8107500000000001,0.8059999999999999,0.5052249025597809,0.5043154605147653,0.5274482952350855,0.47870920305082393,0.4631559626352768,0.07828631603104776,0.4526152975107297,0.0012436886646974984
0.65,0.6475,0.69525,0.62125,0.7177500000000001,0.6075,0.9235,0.855,0.8315,0.80875,0.8115000000000001,0.80675,0.4975701394009621,0.5073633203413042,0.5298851785526177,0.48678586730760176,0.46060253625666775,0.07828631603104776,0.4526152975107297,0.0012436886646974984
0.65,0.647,0.6955,0.62125,0.718,0.6075,0.92375,0.8554999999999999,0.8325,0.8107500000000001,0.8122499999999999,0.8075,0.4904736823624425,0.5105867481302012,0.5324414480845535,0.49450125532058004,0.4589492390561903,0.07753195086414795,0.45311092993245916,0.0010485685717965738
0.65,0.6467499999999999,0.69575,0.62125,0.71825,0.6075,0.92375,0.85575,0.8325,0.81175,0.8127500000000001,0.8075,0.4844060535833421,0.5136521647529759,0.5320622212858598,0.49687710496077153,0.4582511799828232,0.07753195086414795,0.45311092993245916,0.0010485685717965738
0.65,0.6465000000000001,0.696,0.62125,0.7184999999999999,0.6075,0.92375,0.856,0.8325,0.8127500000000001,0.81325,0.8075,0.48047684258576495,0.5163875136065171,0.5327644931352926,0.5002143162851436,0.46729532881045915,0.07753195086414795,0.45311092993245916,0.0010485685717965738
0.65,0.64625,0.69625,0.62125,0.71875,0.6075,0.92375,0.85625,0.8325,0.81375,0.81375,0.8075,0.47923733277151587,0.51939323712209,0.5338775940166438,0.5091237519330674,0.4819729354253994,0.07753195086414795,0.45311092993245916,0.0010485685717965738
0.65,0.64625,0.696,0.621,0.71875,0.6072500000000001,0.924,0.8565,0.8325,0.8140000000000001,0.8145,0.80925,0.4797886161733207,0.5218090522841392,0.533965377997823,0.5195211556360431,0.4888249347167906,0.07753195086414795,0.45311092993245916,0.0010485685717965738
0.65,0.64625,0.69575,0.62075,0.71875,0.607,0.92425,0.85675,0.8325,0.8142499999999999,0.81525,0.8109999999999999,0.4802450928754521,0.5234137434600934,0.5329611292531339,0.5295082965061807,0.49186822612385067,0.0785345666580041,0.45286324431452135,0.0013394206716148098
0.65,0.64625,0.6955,0.6204999999999999,0.71875,0.60675,0.9245,0.857,0.8325,0.8145,0.816,0.8127500000000001,0.4812142280276695,0.5241686856982338,0.5316338354577057,0.5384116093631972,0.4925417917351003,0.0785345666580041,0.45286324431452135,0.0013394206716148098
0.65,0.64625,0.69525,0.62025,0.71875,0.6065,0.92475,0.85725,0.8325,0.81475,0.81675,0.8145,0.4821587836651568,0.5244776853119842,0.5302433371958285,0.5459677910934848,0.49080889116582294,0.07652131671580711,0.4517489225242359,0.0022034988955708214
0.65,0.64625,0.695,0.62,0.71875,0.60625,0.925,0.8575,0.8325,0.815,0.8175,0.81625,0.4805716492854384,0.5237297657923382,0.528694827767829,0.5474190193384423,0.4841589615961147,0.07652131671580711,0.4517489225242359,0.0022034988955708214
0.65,0.64625,0.695,0.62,0.7184999999999999,0.606,0.9245,0.857,0.8325,0.81525,0.8175,0.816,0.47492889497524493,0.5254678886196846,0.5266125917342603,0.5329679755242209,0.4844651277656336,0.07828792032618404,0.45236787307864573,0.0017236935685871844
0.65,0.64625,0.695,0.62,0.71825,0.60575,0.924,0.8565,0.8325,0.8155,0.8175,0.81575,0.49834966115383267,0.5310614839004179,0.5293690087432845,0.5472781825058897,0.5084869258206586,0.07828792032618404,0.45236787307864573,0.0017236935685871844
0.65,0.64625,0.695,0.62,0.718,0.6054999999999999,0.9235,0.856,0.8325,0.81575,0.8175,0.8155,0.5084518417079251,0.5377225323922891,0.541497243582991,0.5786418458384605,0.5224297335521372,0.07828792032618404,0.45236787307864573,0.0017236935685871844
0.65,0.64625,0.695,0.62,0.7177500000000001,0.60525,0.9229999999999999,0.8554999999999999,0.8325,0.816,0.8175,0.81525,0.5161066048667439,0.5312616313775063,0.542842094174655,0.6286755209969092,0.5445716723721287,0.07828792032618404,0.45236787307864573,0.0017236935685871844
0.65,0.6467499999999999,0.695,0.62075,0.718,0.6075,0.91975,0.852,0.828,0.8022499999999999,0.8095,0.78875,0.5225113241335722,0.5404894834790548,0.5531865585168019,0.662923270531266,0.5770007942197973,0.07829112579525987,0.45273913955150497,0.001819030061392796
0.65,0.64725,0.695,0.6214999999999999,0.7184999999999999,0.61,0.917,0.8490000000000001,0.8234999999999999,0.78825,0.8015000000000001,0.7625,0.5278907265002283,0.5488851434390253,0.5727167386495312,0.692749979650713,0.6124119732446105,0.07827990197169932,0.4528635055003752,0.002011962694344646
0.65,0.64775,0.695,0.62225,0.7190000000000001,0.6125,0.91425,0.846,0.8190000000000001,0.77425,0.7935,0.73625,0.5025738263281716,0.5501106078162856,0.5835457705677868,0.6880840076792816,0.6267160585846163,0.18164603902059018,0.4867318823058994,0.21645194693868816
0.65,0.64825,0.695,0.623,0.7195,0.615,0.9115000000000001,0.843,0.8145,0.7602500000000001,0.7855,0.71,0.4936268829663963,0.5415288458162154,0.5832753959057551,0.6601922682761727,0.648196677758254,0.8383685946480103,0.42625275686085806,0.43637610680446093
0.6495000000000001,0.6485,0.69325,0.62225,0.71825,0.615,0.909,0.84175,0.81175,0.742,0.7755,0.6822499999999999,0.48819481021103267,0.5448751711787633,0.5837599634818639,0.6008021542522455,0.6323740088763344,0.9796358453542638,0.37467141609686305,0.5095932090348344
0.649,0.64825,0.6915,0.62075,0.7165,0.6125,0.90925,0.8434999999999999,0.8134999999999999,0.73775,0.7735,0.6807500000000001,0.48695178903753644,0.531897187401243,0.5755433828434987,0.5554466953062577,0.6036066346191447,0.9796358453542638,0.37467141609686305,0.5095932090348344
0.647,0.64425,0.68625,0.6175,0.7122499999999999,0.607,0.90625,0.843,0.81475,0.733,0.7717499999999999,0.67925,0.48947645633624776,0.5172267284665895,0.5589241195266688,0.5299552991969985,0.5715265435531742,0.9796358453542638,0.37467141609686305,0.5095932090348344
0.645,0.6402500000000001,0.6809999999999999,0.61425,0.708,0.6015,0.90325,0.8425,0.816,0.7282500000000001,0.77,0.6777500000000001,0.49446258646722147,0.5063555602373679,0.546746725657502,0.5098646740384027,0.5387973780395828,0.9796358453542638,0.37467141609686305,0.5095932090348344
0.643,0.63625,0.6757500000000001,0.611,0.70375,0.596,0.9002500000000001,0.8420000000000001,0.8172499999999999,0.7234999999999999,0.76825,0.67625,0.4967309245408898,0.50439622177745,0.5364549317040627,0.49579327658851163,0.5090135322873003,0.9440443299081759,0.3703345709512348,0.5071377276134046
0.6415000000000001,0.6325,0.6722499999999999,0.60925,0.70125,0.593,0.897,0.83975,0.81675,0.723,0.7685,0.67625,0.49844797921275324,0.503648302257804,0.5360792162646161,0.49445839202524317,0.5077643743386482,1.0,0.30330472914460804,0.5248095650356305
0.64,0.62875,0.66875,0.6075,0.69875,0.59,0.89375,0.8375,0.81625,0.7225,0.76875,0.67625,0.49799150251062185,0.5036904385687699,0.5353418308227115,0.49524830081538734,0.5080827871434553,1.0,0.30330472914460804,0.5248095650356305
0.64,0.62875,0.66875,0.6075,0.69875,0.59,0.89375,0.8375,0.81625,0.7225,0.76875,0.67625,0.4978299799852523,0.5038308929386566,0.5349977176164893,0.4944706386605315,0.508095033874514,0.9661301928700466,0.30874661630077477,0.528181892451008
0.64,0.62875,0.66875,0.6075,0.69875,0.59,0.89375,0.8375,0.81625,0.7225,0.76875,0.67625,0.49762632114891675,0.503841427016398,0.5347589451876822,0.4934847835142336,0.5077766210697069,0.9436480346763463,0.3156757925009108,0.5275137065430576
0.63975,0.628,0.66675,0.608,0.69825,0.5895,0.8947499999999999,0.8372499999999999,0.8177500000000001,0.7240000000000001,0.77,0.682,0.4975806734787036,0.5035850977913551,0.5349274904315461,0.49417671910235833,0.5069071091023034,0.9436480346763463,0.3156757925009108,0.5275137065430576
0.6395000000000001,0.62725,0.66475,0.6085,0.6977500000000001,0.589,0.89575,0.8370000000000001,0.8192499999999999,0.7254999999999999,0.77125,0.6877500000000001,0.4976192984304224,0.5034095298289968,0.5352364900452965,0.4951380809301944,0.5062090502204771,0.9436480346763463,0.3156757925009108,0.5275137065430576
0.63925,0.6265,0.6627500000000001,0.609,0.6972499999999999,0.5885,0.8967499999999999,0.83675,0.82075,0.727,0.7725,0.6934999999999999,0.4976333438674111,0.5032339618666386,0.535524421503564,0.49617292264158813,0.5056212111520161,0.9436480346763463,0.3156757925009108,0.5275137065430576
0.63875,0.62375,0.6605,0.609,0.6972499999999999,0.588,0.8985,0.8370000000000001,0.82325,0.7304999999999999,0.7755,0.7040000000000001,0.4975806734787036,0.503030303030303,0.5357947961655957,0.4974771906166358,0.5052231950741792,0.9436480346763463,0.3156757925009108,0.5275137065430576
0.63825,0.621,0.65825,0.609,0.6972499999999999,0.5875,0.9002500000000001,0.8372499999999999,0.82575,0.7340000000000001,0.7785,0.7145,0.4974612872643,0.5028301555532146,0.5358580006320447,0.4990141449015873,0.5049782621768724,0.6908093358715653,0.37230057218276913,0.4258237490543035
0.638,0.619,0.6579999999999999,0.6085,0.6977500000000001,0.5875,0.9009999999999999,0.8377500000000001,0.82675,0.736,0.7802500000000001,0.71925,0.49725060570947016,0.5028266441939675,0.5354998419888339,0.4990386381961065,0.505002755447449,0.614605207655624,0.3735221384210142,0.4114378361993169
0.63775,0.617,0.6577500000000001,0.608,0.69825,0.5875,0.9017499999999999,0.83825,0.8277500000000001,0.738,0.782,0.7240000000000001,0.4970434355138874,0.5027142806980582,0.5351767969380947,0.49909987143240453,0.5047578224543716,0.614605207655624,0.3735221384210142,0.4114378361993169
0.6375,0.615,0.6575,0.6075,0.69875,0.5875,0.9025,0.83875,0.82875,0.74,0.78375,0.72875,0.4968608448330349,0.502601917202149,0.5348748200428386,0.49908762478514496,0.5044026696479291,0.614605207655624,0.3735221384210142,0.4114378361993169
0.63725,0.614,0.657,0.6075,0.6990000000000001,0.58675,0.9025,0.83875,0.8305,0.742,0.78525,0.7345,0.49677657221110294,0.502517644580217,0.5348958881983216,0.49912436472093813,0.5039128037575449,0.614605207655624,0.3735221384210142,0.4114378361993169
0.637,0.613,0.6565000000000001,0.6075,0.6992499999999999,0.586,0.9025,0.83875,0.8322499999999999,0.7440000000000001,0.78675,0.7402500000000001,0.4967274131816426,0.5024825309877453,0.5349380245092875,0.4992407078639187,0.5034596777730255,0.614605207655624,0.3735221384210142,0.4114378361993169
0.6367499999999999,0.612,0.6559999999999999,0.6075,0.6995,0.5852499999999999,0.9025,0.83875,0.8340000000000001,0.746,0.78825,0.746,0.49677306085185574,0.5024017697250606,0.5351100811123986,0.4994060376079091,0.5031902515572567,0.5795358434584489,0.3741350786280117,0.4048144483003532
0.6365,0.611,0.6555,0.6075,0.69975,0.5845,0.9025,0.83875,0.83575,0.748,0.78975,0.7517499999999999,0.49673443590013694,0.5023807015695776,0.5352786263562626,0.499595860640433,0.5029943052011031,0.4799864306594959,0.38995033838294346,0.35006325511177344
0.63625,0.61,0.655,0.6075,0.7,0.58375,0.9025,0.83875,0.8375,0.75,0.79125,0.7575,0.496629095122722,0.5024052810843077,0.5354085466484076,0.4998652868801443,0.5027799888920169,0.4799864306594959,0.38995033838294346,0.35006325511177344
0.63625,0.61,0.655,0.6075,0.7,0.58375,0.9025,0.83875,0.8375,0.75,0.79125,0.7575,0.4964394817233751,0.5024017697250606,0.5351381719863759,0.5000673565599278,0.5025717959005749,0.472671774954622,0.3890825253378663,0.3512276419838412
0.63625,0.61,0.655,0.6075,0.7,0.58375,0.9025,0.83875,0.8375,0.75,0.79125,0.7575,0.49626742512026406,0.5023631447733418,0.5350293198497138,0.5002816728809854,0.5021370399168732,0.47166114080628124,0.38846396502584996,0.3520022630443943
0.6355,0.609,0.65425,0.60675,0.6992499999999999,0.58325,0.9035,0.8384999999999999,0.8377500000000001,0.7509999999999999,0.792,0.7602500000000001,0.49617612977983777,0.5023877242880719,0.5350082516942308,0.5005266058261775,0.5014451043526911,0.47166114080628124,0.38846396502584996,0.3520022630443943
0.63475,0.608,0.6535,0.606,0.6984999999999999,0.58275,0.9045000000000001,0.83825,0.838,0.752,0.7927500000000001,0.763,0.4961234593911303,0.5023947470065663,0.5349977176164893,0.5007164288587014,0.5007776621069707,0.47166114080628124,0.38846396502584996,0.3520022630443943
0.634,0.607,0.65275,0.60525,0.6977500000000001,0.58225,0.9055,0.838,0.83825,0.753,0.7935,0.76575,0.49614803890586046,0.5023736788510833,0.5350152744127251,0.500967485133509,0.5001163431549519,0.47166114080628124,0.38846396502584996,0.3520022630443943
0.632,0.60575,0.6515000000000001,0.6032500000000001,0.69625,0.5815,0.905,0.8370000000000001,0.83825,0.75325,0.7945,0.76875,0.4962463569647811,0.5024403946767794,0.5352856490747568,0.5012246647259607,0.49954687403942327,0.46433686245178635,0.38474894808818544,0.35297908887470514
0.63,0.6045,0.6502500000000001,0.60125,0.69475,0.58075,0.9045000000000001,0.836,0.83825,0.7535,0.7955,0.7717499999999999,0.49639383405316195,0.5024860423469926,0.5355560237367885,0.5014695976711528,0.49924683118754853,0.46433686245178635,0.38474894808818544,0.35297908887470514
0.62875,0.60425,0.6497499999999999,0.6,0.6940000000000001,0.5805,0.903,0.83525,0.838,0.75275,0.7957500000000001,0.772,0.49643597036412795,0.5025281786579585,0.5357351030583939,0.501763517229326,0.49922233789302933,0.4398510769655098,0.3710082967883495,0.3634071629880442
0.6275,0.604,0.64925,0.59875,0.69325,0.5802499999999999,0.9015000000000001,0.8345,0.8377500000000001,0.752,0.7959999999999999,0.77225,0.49649917483057693,0.5026897011833281,0.5358790687875277,0.502039066810624,0.49935092768326955,0.41662256883819754,0.3794286813566492,0.37239665461182725
0.62625,0.60375,0.64875,0.5975,0.6925,0.58,0.9,0.83375,0.8375,0.75125,0.79625,0.7725,0.4965307770638014,0.5029214508936409,0.5359949436426841,0.502137039988701,0.4995774906635579,0.4090580613324278,0.3903302316709152,0.3860856297454395
0.62625,0.60375,0.64875,0.5975,0.6925,0.58,0.9,0.83375,0.8375,0.75125,0.79625,0.7725,0.49655535657853156,0.5029811440008427,0.5360125004389199,0.5019778335623547,0.4998836568570194,0.41310219285733724,0.39057935381104897,0.38781916870364774
0.62525,0.6035,0.64925,0.5972500000000001,0.6920000000000001,0.5795,0.9005,0.8334999999999999,0.83575,0.7509999999999999,0.7959999999999999,0.7725,0.4965729133747674,0.5029600758453597,0.5361108184978405,0.5019839568799989,0.49992652012841365,0.41310219285733724,0.39057935381104897,0.38781916870364774
0.624,0.6032500000000001,0.64925,0.597,0.69125,0.57875,0.9005,0.833,0.83375,0.7505,0.79525,0.772,0.4965904701710032,0.5030127462340672,0.5359773868464482,0.5017573938877392,0.4999203968107695,0.4133536489533694,0.3916941995094294,0.3883006573920731
0.62275,0.603,0.64925,0.59675,0.6905,0.578,0.9005,0.8325,0.83175,0.75,0.7945,0.7715000000000001,0.4965413111415429,0.5030373257487973,0.5358755574282805,0.5014328577174028,0.4998040536558176,0.4133536489533694,0.3916941995094294,0.3883006573920731
0.6214999999999999,0.60275,0.64925,0.5965,0.68975,0.57725,0.9005,0.8320000000000001,0.82975,0.7495,0.79375,0.7709999999999999,0.4964921521120826,0.5029390076898768,0.5357245689806525,0.5009858550864414,0.4995652440402409,0.4133536489533694,0.3916941995094294,0.3883006573920731
0.62025,0.6025,0.64925,0.59625,0.6890000000000001,0.5765,0.9005,0.8315,0.8277500000000001,0.7490000000000001,0.7929999999999999,0.7705,0.49645001580111664,0.5029319849713825,0.5356086941254959,0.5007164288587014,0.49914885803341424,0.4095673844626438,0.3899609256283468,0.38849976962971194
0.62,0.6025,0.64875,0.59625,0.68875,0.57625,0.9,0.83125,0.8275,0.74875,0.7925,0.77,0.49638329997542047,0.5029881667193371,0.5353593876189473,0.5001224664725961,0.4988181985454336,0.3808212840000469,0.40816226411458617,0.3970935439251861
0.62025,0.60275,0.648,0.5965,0.68825,0.57625,0.9,0.83075,0.8272499999999999,0.74875,0.7922499999999999,0.77,0.4962814705572527,0.5029214508936409,0.535162751501106,0.4997244504306732,0.4983589492672127,0.3808212840000469,0.40816226411458617,0.3970935439251861
0.6204999999999999,0.603,0.64725,0.59675,0.6877500000000001,0.57625,0.9,0.83025,0.8270000000000001,0.74875,0.792,0.77,0.49621124337230943,0.5028512237086976,0.5349626040240177,0.4994550241909618,0.49770375365678066,0.37628866957570944,0.4110090762283928,0.3954605723158958
0.62075,0.6032500000000001,0.6465000000000001,0.597,0.6872499999999999,0.57625,0.9,0.82975,0.82675,0.74875,0.79175,0.77,0.49613750482811897,0.50277397380526,0.5347519224691878,0.4994550241909618,0.4966995285336077,0.37628866957570944,0.4110090762283928,0.3954605723158958
0.6204999999999999,0.60375,0.64625,0.597,0.6872499999999999,0.57625,0.89875,0.82875,0.8255,0.74675,0.79025,0.7675,0.49636574317918464,0.5028406896309562,0.5351592401418589,0.49932643438875035,0.49716490112947276,0.37628866957570944,0.4110090762283928,0.3954605723158958
0.62025,0.60425,0.6459999999999999,0.597,0.6872499999999999,0.57625,0.8975,0.8277500000000001,0.8242499999999999,0.7447499999999999,0.78875,0.765,0.49645001580111664,0.5028231328347204,0.535247024123038,0.4990631314906257,0.4981752495463473,0.37906430303929095,0.4138574569937096,0.3967985340742612
0.61975,0.6045,0.6465000000000001,0.59675,0.6877500000000001,0.57625,0.89625,0.8272499999999999,0.82325,0.74275,0.7875,0.7625,0.49659398153025036,0.5028617577864392,0.5354085466484076,0.49872022537932803,0.49930806441187525,0.37906430303929095,0.4138574569937096,0.3967985340742612
0.61925,0.60475,0.647,0.5965,0.68825,0.57625,0.895,0.82675,0.8222499999999999,0.74075,0.78625,0.76,0.49663260648196916,0.502900382738158,0.5355173987850697,0.4982732227363954,0.5005694690915861,0.37906430303929095,0.4138574569937096,0.3967985340742612
0.61875,0.605,0.6475,0.59625,0.68875,0.57625,0.89375,0.82625,0.82125,0.73875,0.785,0.7575,0.49669581094841814,0.5029811440008427,0.5357245689806525,0.49771600026812635,0.5022166432138453,0.3281853031796012,0.4244968135840526,0.3716190168462472
0.61875,0.605,0.6475,0.59625,0.68875,0.57625,0.89375,0.82625,0.82125,0.73875,0.785,0.7575,0.49651673162681276,0.5029074054566522,0.5351943537343306,0.49725675101384803,0.5023880962754799,0.31150586176670236,0.44170701781975985,0.37431820593464377
0.6195,0.60575,0.648,0.5965,0.69,0.5770000000000001,0.89425,0.8270000000000001,0.8215,0.7395,0.78525,0.759,0.49648864075283544,0.5028336669124618,0.5351451947048702,0.4974955606174534,0.5013471312224993,0.31150586176670236,0.44170701781975985,0.37431820593464377
0.62025,0.6065,0.6485,0.59675,0.69125,0.57775,0.8947499999999999,0.8277500000000001,0.82175,0.7402500000000001,0.7855,0.7605,0.4964324590048808,0.5027985533199901,0.5351662628603533,0.4978323433991357,0.5004347560076443,0.31150586176670236,0.44170701781975985,0.37431820593464377
0.621,0.6072500000000001,0.649,0.597,0.6925,0.5785,0.8952500000000001,0.8284999999999999,0.8220000000000001,0.741,0.7857500000000001,0.762,0.4965623792970259,0.5026861898240809,0.5352961831524984,0.49820586615851065,0.49957136735788504,0.31150586176670236,0.44170701781975985,0.37431820593464377
0.62275,0.60875,0.6505,0.598,0.69525,0.5802499999999999,0.89575,0.83025,0.8222499999999999,0.74125,0.7859999999999999,0.7635,0.496692299589171,0.5025738263281716,0.5354261034446435,0.4985793889178856,0.49870797870812583,0.3029146865248191,0.4509931182643693,0.3778362311642281
0.6245,0.61025,0.652,0.599,0.698,0.5820000000000001,0.89625,0.8320000000000001,0.8225,0.7415,0.78625,0.765,0.4967590154148671,0.5024614628322623,0.535650830436462,0.4990815014435582,0.49788745332976087,0.24945245937601673,0.42978047742275916,0.263108612618541
0.6255,0.611,0.653,0.59975,0.6995,0.583,0.89625,0.833,0.8225,0.741,0.78625,0.765,0.49679061764809157,0.5024368833175322,0.5357210576214052,0.49922233789302933,0.497789480151684,0.24945245937601673,0.42978047742275916,0.263108612618541
0.6265,0.61175,0.654,0.6004999999999999,0.701,0.584,0.89625,0.8340000000000001,0.8225,0.7404999999999999,0.78625,0.765,0.4969170265809895,0.5024263492397907,0.5356648758734506,0.4995713673459138,0.49725062769620393,0.23106573893961949,0.4349753319256226,0.24666839279458821
0.62875,0.61475,0.65625,0.603,0.7034999999999999,0.586,0.89625,0.8355,0.8225,0.7395,0.7857500000000001,0.7645000000000001,0.49699778784367427,0.5024895537062397,0.5357667052916184,0.4996999571421396,0.49737921748644415,0.1950402554167699,0.43608194412405865,0.21983948162901407
0.63,0.617,0.6575,0.60475,0.7045,0.5870000000000001,0.89625,0.836,0.8225,0.7390000000000001,0.78525,0.764,0.49709259454334775,0.5025668036096773,0.5358369324765617,0.4997183271190147,0.49759965713711707,0.1950402554167699,0.43608194412405865,0.21983948162901407
0.63125,0.61925,0.65875,0.6065,0.7055,0.588,0.89625,0.8365,0.8225,0.7384999999999999,0.78475,0.7635,0.4971733558060325,0.5025843604059131,0.5358263983988202,0.4996632172123321,0.4979731798845207,0.18497080960029938,0.44016404548814686,0.20773243555269677
0.63325,0.62225,0.66125,0.60925,0.7075,0.5902499999999999,0.89625,0.8377500000000001,0.8225,0.738,0.784,0.762,0.49722953755398713,0.5025632922504302,0.5358123529618315,0.4996448472414427,0.49823035951288636,0.18497080960029938,0.44016404548814686,0.20773243555269677
0.63525,0.62525,0.66375,0.612,0.7095,0.5925,0.89625,0.8390000000000001,0.8225,0.7375,0.78325,0.7605,0.497183889883774,0.5024930650654869,0.5358825801467748,0.49936929767810156,0.4988304452166358,0.18069285674106994,0.44214343633565706,0.20350628537589757
0.636,0.626,0.665,0.613,0.7105,0.59375,0.89625,0.83975,0.8225,0.7375,0.7829999999999999,0.7595000000000001,0.49715228765054953,0.5023877242880719,0.5357737280101127,0.4994244075907698,0.4987630886507223,0.18069285674106994,0.44214343633565706,0.20350628537589757
0.6367499999999999,0.6267499999999999,0.66625,0.614,0.7115,0.595,0.89625,0.8405,0.8225,0.7375,0.7827500000000001,0.7585,0.4971066399803364,0.5022683380736683,0.5356964781066751,0.49958973732278883,0.4986038822243761,0.18069285674106994,0.44214343633565706,0.20350628537589757
0.6375,0.6275,0.6675,0.615,0.7125,0.59625,0.89625,0.84125,0.8225,0.7375,0.7825,0.7575,0.49721900347624565,0.5023104743846343,0.5357035008251694,0.49971832711302905,0.4985671422825973,0.16005907127054927,0.45241113774713476,0.1678513566975712
0.6375,0.6275,0.6675,0.615,0.7125,0.59625,0.89625,0.84125,0.8225,0.7375,0.7825,0.7575,0.49737701464236805,0.5023666561325889,0.5357245689806525,0.49972445043665886,0.4989222950411546,0.15376787159031963,0.4496842468135215,0.15836186850875544
0.63825,0.62825,0.66875,0.6154999999999999,0.713,0.5972500000000001,0.8975,0.8420000000000001,0.8222499999999999,0.73775,0.7827500000000001,0.758,0.4974367077495699,0.5024228378805435,0.5357947961655957,0.49958361398120205,0.4993937909546638,0.15376787159031963,0.4496842468135215,0.15836186850875544
0.639,0.629,0.67,0.616,0.7134999999999999,0.5982500000000001,0.89875,0.8427500000000001,0.8220000000000001,0.738,0.7829999999999999,0.7585,0.4974647986235472,0.502391235647319,0.5357947961655957,0.49952850406853383,0.4997550670548079,0.15376787159031963,0.4496842468135215,0.15836186850875544
0.63975,0.62975,0.67125,0.6164999999999999,0.7140000000000001,0.59925,0.9,0.8434999999999999,0.82175,0.7382500000000001,0.78325,0.759,0.49745777590505286,0.5024193265212964,0.5357807507286071,0.49951625742127426,0.5000489865950241,0.15376787159031963,0.4496842468135215,0.15836186850875544
0.6405,0.631,0.6722499999999999,0.61725,0.715,0.601,0.90225,0.84425,0.8220000000000001,0.73925,0.784,0.7625,0.49732785561290777,0.5023210084623758,0.535738614417641,0.49958361398120205,0.5001040965076923,0.1474750707361504,0.44918678455442795,0.1504015949895156
0.6415000000000001,0.63225,0.67375,0.6182500000000001,0.71625,0.603,0.9047499999999999,0.8454999999999999,0.8225,0.74075,0.78525,0.7665000000000001,0.4971768671652797,0.50230345166614,0.5357491484953826,0.49970608045379816,0.4999632600642068,0.1301005918644271,0.44979567330791675,0.11769863259336859
0.6417499999999999,0.63275,0.674,0.61875,0.7170000000000001,0.604,0.9059999999999999,0.846,0.82325,0.742,0.78625,0.77,0.4971768671652797,0.5022367358404438,0.5357035008251694,0.5000244932945193,0.4996999571421396,0.1301005918644271,0.44979567330791675,0.11769863259336859
0.642,0.63325,0.67425,0.61925,0.7177500000000001,0.605,0.9072499999999999,0.8465,0.8240000000000001,0.7432500000000001,0.7872499999999999,0.7735,0.497204958039257,0.5023174971031287,0.5356543417957091,0.5001714530616345,0.4995897373168032,0.1253165213440575,0.44632637848512446,0.11022544076885761
0.64225,0.63375,0.6745,0.61975,0.7184999999999999,0.606,0.9085,0.847,0.82475,0.7445,0.78825,0.777,0.49726816250570594,0.5023385652586116,0.5356192282032375,0.5002755495633412,0.49954687405139453,0.11422201520780652,0.44706342191875104,0.09134636446173464
0.6425,0.63375,0.675,0.62,0.71875,0.60625,0.90875,0.8475,0.825,0.745,0.78875,0.7775,0.4972400716317286,0.5023631447733418,0.5356578531549563,0.5003184128287498,0.49952850408050514,0.11673977539481065,0.44867285375905835,0.09144359299213901
0.6425,0.63375,0.675,0.62,0.71875,0.60625,0.90875,0.8475,0.825,0.745,0.78875,0.7775,0.49722602619474,0.50230345166614,0.5356297622809789,0.5003551527705286,0.4994733941678369,0.11673977539481065,0.44867285375905835,0.09144359299213901
0.64275,0.6345000000000001,0.67475,0.62,0.7184999999999999,0.6065,0.90875,0.8475,0.825,0.7452500000000001,0.789,0.77725,0.4971979353207627,0.5023069630253871,0.535587625970013,0.5003735227354323,0.4994550241909618,0.11673977539481065,0.44867285375905835,0.09144359299213901
0.643,0.63525,0.6745,0.62,0.71825,0.60675,0.90875,0.8475,0.825,0.7454999999999999,0.78925,0.777,0.49708908318410056,0.5022894062291513,0.5356402963587205,0.5003061661755045,0.499638723899856,0.11673977539481065,0.44867285375905835,0.09144359299213901
0.64325,0.636,0.67425,0.62,0.718,0.607,0.90875,0.8475,0.825,0.74575,0.7895,0.7767499999999999,0.49701183328066295,0.5022718494329155,0.5357175462621581,0.5002571795864661,0.49984691690326927,0.1169848174314944,0.4473117605013233,0.09269139148522115
0.64325,0.63625,0.67375,0.61975,0.7175,0.607,0.9085,0.847,0.82475,0.74575,0.79,0.7767499999999999,0.49702236735840444,0.5023069630253871,0.5357175462621581,0.5001714530556488,0.5001408364374998,0.1169848174314944,0.4473117605013233,0.09269139148522115
0.64325,0.6365,0.67325,0.6195,0.7170000000000001,0.607,0.90825,0.8465,0.8245,0.74575,0.7905,0.7767499999999999,0.4970434355138874,0.5023631447733418,0.535759682573124,0.5000428632594229,0.5005449757850956,0.11973800324795482,0.44917044507469145,0.09614001915362014
0.64275,0.6355,0.6727500000000001,0.619,0.716,0.606,0.9075,0.84575,0.8245,0.7465,0.7915000000000001,0.77925,0.49698023104743844,0.502391235647319,0.5358018188840901,0.4998897801746635,0.5009062518852396,0.12199469093169925,0.4502859437377064,0.10199495103791595
0.64225,0.6345000000000001,0.6722499999999999,0.6185,0.715,0.605,0.90675,0.845,0.8245,0.74725,0.7925,0.78175,0.4969170265809895,0.502324519821623,0.5357912848063485,0.4998163002911059,0.5010287183578357,0.12199469093169925,0.4502859437377064,0.10199495103791595
0.6417499999999999,0.6335000000000001,0.67175,0.618,0.7140000000000001,0.604,0.9059999999999999,0.84425,0.8245,0.748,0.7935,0.78425,0.4968503107552934,0.50230345166614,0.5357280803398996,0.49974894373117806,0.5010470883347108,0.12199469093169925,0.4502859437377064,0.10199495103791595
0.6415000000000001,0.633,0.6715000000000001,0.61775,0.71325,0.6032500000000001,0.9055,0.8440000000000001,0.82475,0.7490000000000001,0.79425,0.7865000000000001,0.4967063450261596,0.5022472699181854,0.5357210576214052,0.49976731370206745,0.5009307451857444,0.1348253346767214,0.4432318822897673,0.11115164928550482
0.64125,0.6325,0.67125,0.6175,0.7125,0.6025,0.905,0.84375,0.825,0.75,0.795,0.78875,0.49665367463745214,0.502177042733242,0.535650830436462,0.4998469169092549,0.5007164288706727,0.1348253346767214,0.4432318822897673,0.11115164928550482
0.64125,0.6325,0.67125,0.6175,0.7125,0.6025,0.905,0.84375,0.825,0.75,0.795,0.78875,0.4965974928894975,0.5021208609852874,0.5355806032515187,0.4999203967928126,0.5004163860128122,0.137850816820002,0.4419942408304142,0.11259802619349833
0.64125,0.6325,0.67125,0.6175,0.7125,0.6025,0.905,0.84375,0.825,0.75,0.795,0.78875,0.49663260648196916,0.502131395063029,0.5355209101443169,0.5000428632654086,0.5000734798895433,0.137850816820002,0.4419942408304142,0.11259802619349833
0.64125,0.63225,0.6709999999999999,0.6175,0.7122499999999999,0.60175,0.9047499999999999,0.8434999999999999,0.82525,0.75075,0.79525,0.7895,0.49667474279293516,0.50209277011131,0.5355630464552829,0.5001285897962259,0.49990202682192314,0.137850816820002,0.4419942408304142,0.11259802619349833
0.64125,0.632,0.6707500000000001,0.6175,0.7120000000000001,0.601,0.9045000000000001,0.84325,0.8255,0.7515000000000001,0.7955,0.79025,0.4967414586186313,0.5020822360335686,0.5355700691737771,0.500220439650673,0.49976731370206745,0.13708682900348124,0.4413747648315221,0.1125070682602913
0.64125,0.6317499999999999,0.6705,0.6175,0.71175,0.60025,0.90425,0.843,0.82575,0.75225,0.7957500000000001,0.7909999999999999,0.4966993223076653,0.5020892587520629,0.5355770918922715,0.5003245361463939,0.499626477258582,0.13708682900348124,0.4413747648315221,0.1125070682602913
0.64075,0.631,0.67,0.61725,0.71125,0.59925,0.9035,0.8427500000000001,0.82575,0.753,0.7959999999999999,0.79125,0.4966782541521823,0.50209277011131,0.5356051827662488,0.5004408793013458,0.4994978874623561,0.14062163739817463,0.4369182612279417,0.114257593093717
0.6402500000000001,0.63025,0.6695,0.617,0.71075,0.5982500000000001,0.90275,0.8425,0.82575,0.75375,0.79625,0.7915000000000001,0.496608026967239,0.5020857473928158,0.5356402963587205,0.500520482514519,0.4994366542260581,0.14062163739817463,0.4369182612279417,0.114257593093717
0.63975,0.62975,0.66925,0.61675,0.7105,0.598,0.90225,0.8425,0.8255,0.75375,0.79625,0.7909999999999999,0.4965834474525089,0.5021138382667931,0.5355841146107658,0.5006490723047592,0.49919784460449573,0.143382838447923,0.4386531022241471,0.11934046505331788
0.63925,0.62925,0.669,0.6164999999999999,0.71025,0.59775,0.9017499999999999,0.8425,0.82525,0.75375,0.79625,0.7905,0.49663611784121636,0.5021103269075459,0.5354963306295867,0.5007837854246149,0.4989222950411546,0.143382838447923,0.4386531022241471,0.11934046505331788
0.63875,0.62875,0.6685,0.616,0.71,0.5972500000000001,0.9009999999999999,0.84175,0.8245,0.75275,0.7957500000000001,0.78875,0.49670985638540677,0.5021559745777591,0.5355349555813055,0.5007715387893266,0.4989529116593036,0.143382838447923,0.4386531022241471,0.11934046505331788
0.63875,0.62875,0.66825,0.61575,0.71,0.597,0.90075,0.841,0.8240000000000001,0.7517499999999999,0.79525,0.7875,0.4967871062888444,0.502219179044208,0.5356051827662488,0.5007715387893266,0.4990937481027891,0.143382838447923,0.4386531022241471,0.11934046505331788
0.63875,0.62875,0.6679999999999999,0.6154999999999999,0.71,0.59675,0.9005,0.84025,0.8234999999999999,0.75075,0.79475,0.78625,0.4968608448330349,0.5022578039959268,0.5355911373292601,0.5007592921300956,0.4991917212808659,0.143382838447923,0.4386531022241471,0.11934046505331788
0.63875,0.62875,0.6677500000000001,0.61525,0.71,0.5965,0.9002500000000001,0.8395,0.823,0.7497499999999999,0.79425,0.785,0.4968292425998104,0.5022437585589382,0.535587625970013,0.5006980589057689,0.49933868104798124,0.14589098222769964,0.43791266183803373,0.1248063560330984
0.63875,0.62875,0.6675,0.615,0.71,0.59625,0.9,0.83875,0.8225,0.74875,0.79375,0.78375,0.49679061764809157,0.502282383510657,0.5356157168439903,0.50066131896399,0.49945502420293314,0.15067184415779664,0.4386576775857508,0.1299808113477609
0.63875,0.62875,0.6675,0.615,0.71,0.59625,0.9,0.83875,0.8225,0.74875,0.79375,0.78375,0.4967800835703501,0.5022999403068928,0.5355138874258225,0.5007592921420669,0.4992407078639187,0.15242882511855257,0.44286963441080124,0.13562789935312364
0.63875,0.62875,0.6675,0.615,0.71,0.59625,0.9,0.83875,0.8225,0.74875,0.79375,0.78375,0.4968081744443274,0.5022578039959268,0.5354331261631378,0.5008205253663937,0.4990570081610103,0.15242882511855257,0.44286963441080124,0.13562789935312364
0.6385000000000001,0.6285000000000001,0.6672499999999999,0.61475,0.70975,0.59625,0.8995000000000001,0.838,0.8220000000000001,0.7482500000000001,0.7929999999999999,0.7829999999999999,0.49683977667755186,0.5022297131219495,0.5354822851925981,0.5008450186609129,0.4990815014555295,0.15242882511855257,0.44286963441080124,0.13562789935312364
0.63825,0.62825,0.667,0.6145,0.7095,0.59625,0.899,0.8372499999999999,0.8215,0.74775,0.7922499999999999,0.7822499999999999,0.4968503107552934,0.5022683380736683,0.5355279328628112,0.5008940052499513,0.49909987143240453,0.15519644022764936,0.4418813762774357,0.13955774333903356
0.638,0.628,0.66675,0.61425,0.7092499999999999,0.59625,0.8985,0.8365,0.821,0.74725,0.7915000000000001,0.7815000000000001,0.4969135152217423,0.5022718494329155,0.5355806032515187,0.5009123752148551,0.4991917212808659,0.15519644022764936,0.4418813762774357,0.13955774333903356
0.63775,0.62775,0.6665000000000001,0.614,0.7090000000000001,0.59625,0.898,0.83575,0.8205,0.74675,0.7907500000000001,0.78075,0.496885424347765,0.5022718494329155,0.5356122054847432,0.5008878819203358,0.4993080644358179,0.15519644022764936,0.4418813762774357,0.13955774333903356
0.6375,0.62725,0.6659999999999999,0.6135,0.7084999999999999,0.596,0.89725,0.8355,0.8192499999999999,0.74575,0.78975,0.779,0.49684328803679906,0.5023174971031287,0.5355911373292601,0.5008756352850475,0.4993692976601446,0.16022073989929383,0.4421316752902989,0.14761057929274646
0.6375,0.627,0.6657500000000001,0.6132500000000001,0.70825,0.59575,0.897,0.836,0.8184999999999999,0.7452500000000001,0.7895,0.778,0.4968081744443274,0.502370167491836,0.5355560237367885,0.5009123752387976,0.4992100912457697,0.16022073989929383,0.4421316752902989,0.14761057929274646
0.6375,0.6267499999999999,0.6655,0.613,0.708,0.5954999999999999,0.8967499999999999,0.8365,0.8177500000000001,0.7447499999999999,0.78925,0.777,0.4968081744443274,0.5023877242880719,0.5354998419888339,0.5009368685333169,0.4990386381841352,0.16248223734725045,0.4438670417309868,0.15249694140050485
0.6375,0.6265,0.66525,0.61275,0.7077500000000001,0.59525,0.8965000000000001,0.8370000000000001,0.8170000000000001,0.74425,0.789,0.7759999999999999,0.49681519716282174,0.502391235647319,0.5354366375223849,0.500973608487067,0.49888555508740445,0.16248223734725045,0.4438670417309868,0.15249694140050485
0.6375,0.62625,0.66475,0.6125,0.7075,0.59475,0.8965000000000001,0.8365,0.81625,0.743,0.78825,0.77375,0.4968959584255065,0.5024123038028021,0.5355349555813055,0.5009429918629323,0.49897740494783716,0.1649951908912392,0.4441151191277053,0.15441031734957378
0.6375,0.62625,0.6645,0.6125,0.7075,0.5945,0.8967499999999999,0.8355,0.81625,0.74225,0.7877500000000001,0.7725,0.4969942764844271,0.5024474173952738,0.5356051827662488,0.5008327720316103,0.4990876247791593,0.1649951908912392,0.4441151191277053,0.15441031734957378
0.6375,0.62625,0.66425,0.6125,0.7075,0.59425,0.897,0.8345,0.81625,0.7415,0.7872499999999999,0.77125,0.49700129920292146,0.5024649741915095,0.5356157168439903,0.5007531688184371,0.4992713244880534,0.1649951908912392,0.4441151191277053,0.15441031734957378
0.6375,0.62625,0.664,0.6125,0.7075,0.594,0.89725,0.8334999999999999,0.81625,0.74075,0.78675,0.77,0.4970329014361459,0.5024649741915095,0.5356473190772147,0.500673565605264,0.49946114751459164,0.1649951908912392,0.4441151191277053,0.15441031734957378
0.6375,0.62625,0.66375,0.6125,0.7075,0.59375,0.8975,0.8325,0.81625,0.74,0.78625,0.76875,0.4969942764844271,0.5024719969100039,0.535692966747428,0.5005878390624755,0.49963260057622616,0.1720295319148081,0.4446163701180664,0.16850726225632334
0.6375,0.62625,0.66375,0.6125,0.7075,0.59375,0.8975,0.8325,0.81625,0.74,0.78625,0.76875,0.49699778784367427,0.502454440113768,0.5356192282032375,0.5005633457679562,0.49957749066954354,0.17252603004752404,0.4479607750838934,0.17348496203936542
0.6375,0.62625,0.66375,0.6125,0.7075,0.59375,0.8975,0.8325,0.81625,0.74,0.78625,0.76875,0.49692053794023666,0.5024228378805435,0.5355595350960357,0.5006490723047592,0.4994733941678369,0.17252603004752404,0.4479607750838934,0.17348496203936542
0.6375,0.62625,0.66375,0.6125,0.7075,0.59375,0.8975,0.8325,0.81625,0.74,0.78625,0.76875,0.4968678675515292,0.5024228378805435,0.5355279328628112,0.5007103055410572,0.4992835711412986,0.17252603004752404,0.4479607750838934,0.17348496203936542
0.63725,0.626,0.66375,0.61225,0.7077500000000001,0.5935,0.8975,0.8322499999999999,0.8155,0.7397499999999999,0.7855,0.76825,0.49692053794023666,0.5024228378805435,0.5356016714070017,0.5007715387773553,0.4992652011763949,0.17252603004752404,0.4479607750838934,0.17348496203936542
0.637,0.62575,0.66375,0.612,0.708,0.59325,0.8975,0.8320000000000001,0.81475,0.7395,0.78475,0.76775,0.4969556515327083,0.5024684855507567,0.5355806032515187,0.5008082787311053,0.4992774478356258,0.17252603004752404,0.4479607750838934,0.17348496203936542
0.6367499999999999,0.6255,0.66375,0.61175,0.70825,0.593,0.8975,0.83175,0.8140000000000001,0.73925,0.784,0.76725,0.4969380947364725,0.5025000877839811,0.535587625970013,0.5008572653201437,0.49928357115326993,0.17403476350252034,0.44783915465926294,0.17654563100750562
0.6365,0.62525,0.66375,0.6114999999999999,0.7084999999999999,0.59275,0.8975,0.8315,0.81325,0.7390000000000001,0.78325,0.7667499999999999,0.4969380947364725,0.5025141332209698,0.5355981600477545,0.5008327720256246,0.4993141877774046,0.17403476350252034,0.44783915465926294,0.17654563100750562
0.636,0.625,0.66375,0.61075,0.7084999999999999,0.59225,0.8975,0.83075,0.8125,0.738,0.782,0.7652500000000001,0.4969942764844271,0.5024930650654869,0.5355841146107658,0.5008388953432688,0.4993815443313468,0.17527600727371184,0.4464797575731903,0.18258665774090801
0.63575,0.625,0.66375,0.61025,0.70825,0.5920000000000001,0.8975,0.83025,0.8125,0.73725,0.7815000000000001,0.76425,0.496948628814214,0.5025106218617227,0.5354752624741037,0.5008205253663937,0.4992407078818757,0.1724939628719787,0.44994722102223117,0.18583466633569656
0.6355,0.625,0.66375,0.60975,0.708,0.59175,0.8975,0.82975,0.8125,0.7365,0.7809999999999999,0.76325,0.49703992415464027,0.502580849046666,0.5356157168439903,0.5007960320718744,0.49921621458735643,0.1724939628719787,0.44994722102223117,0.18583466633569656
0.63525,0.6245,0.66375,0.60925,0.7077500000000001,0.5920000000000001,0.89725,0.8290000000000001,0.8115000000000001,0.7354999999999999,0.7802500000000001,0.76075,0.49703992415464027,0.5026089399206433,0.5356086941254959,0.5007164288587014,0.4992958177945439,0.17450720969297892,0.4505678723574654,0.1911052188405513
0.635,0.624,0.66375,0.60875,0.7075,0.59225,0.897,0.82825,0.8105,0.7345,0.7795000000000001,0.75825,0.4970855718248534,0.5026545875908565,0.5356122054847432,0.5006796889049513,0.4993815443193755,0.17450720969297892,0.4505678723574654,0.1911052188405513
0.635,0.6235,0.66375,0.60875,0.7075,0.59275,0.8967499999999999,0.828,0.8095,0.73425,0.77925,0.7567499999999999,0.4971241967765722,0.5027037466203167,0.5356332736402262,0.5006000857037495,0.49947951749745234,0.17450720969297892,0.4505678723574654,0.1911052188405513
0.635,0.623,0.66375,0.60875,0.7075,0.59325,0.8965000000000001,0.8277500000000001,0.8085,0.7340000000000001,0.779,0.7552500000000001,0.4971557990097967,0.5027213034165525,0.5356648758734506,0.5005694690915861,0.49960810728769256,0.18054374780810056,0.4485893956604435,0.19542574523586345
0.635,0.6225,0.66375,0.60875,0.7075,0.59375,0.89625,0.8275,0.8075,0.73375,0.77875,0.75375,0.49708908318410056,0.5026475648723621,0.5355314442220583,0.5005694690915861,0.4995529973690387,0.17700252535405872,0.4529253266555834,0.2003828418880928
0.635,0.62275,0.66375,0.609,0.7072499999999999,0.5935,0.8955,0.8272499999999999,0.8072499999999999,0.7332500000000001,0.77875,0.7535,0.4970680150286176,0.5026651216685979,0.5356297622809789,0.5006000857157208,0.4995468740454089,0.1805245056300553,0.4488406103601825,0.2024033044961386
0.635,0.623,0.66375,0.60925,0.7070000000000001,0.59325,0.8947499999999999,0.8270000000000001,0.807,0.73275,0.77875,0.75325,0.4970715263878647,0.5026405421538678,0.5357070121844166,0.5006123323749516,0.49951625742725986,0.18001678679497557,0.4493361121889851,0.2031734705633845
0.63475,0.6232500000000001,0.66375,0.60925,0.70675,0.593,0.8935,0.82675,0.8065000000000001,0.73175,0.77825,0.75225,0.4971136626988307,0.5026791671055866,0.5357667052916184,0.500569469109543,0.4995346273981493,0.18152872571904774,0.44908855716397417,0.20345596833751817
0.6345000000000001,0.6235,0.66375,0.60925,0.7065,0.59275,0.89225,0.8265,0.8059999999999999,0.73075,0.77775,0.75125,0.4971136626988307,0.5027213034165525,0.5357842620878542,0.5005204825205046,0.4996019839640628,0.18152872571904774,0.44908855716397417,0.20345596833751817
0.63425,0.62375,0.66375,0.60925,0.70625,0.5925,0.8909999999999999,0.82625,0.8055,0.7297499999999999,0.77725,0.7502500000000001,0.4970750377471119,0.5026756557463394,0.535843955195056,0.5004470026309613,0.4997918069965867,0.18152872571904774,0.44908855716397417,0.20345596833751817
0.634,0.6235,0.6635,0.609,0.706,0.59225,0.89,0.826,0.805,0.72925,0.7767499999999999,0.74875,0.49707854910635907,0.5025984058429018,0.5357807507286071,0.5003918927182931,0.4998040536438463,0.18377739504830748,0.45070047180628,0.21131423743279312
0.63375,0.6232500000000001,0.66325,0.60875,0.70575,0.5920000000000001,0.889,0.82575,0.8045,0.72875,0.77625,0.74725,0.49707854910635907,0.5025773376874187,0.5356999894659222,0.500373522741418,0.4998652868801443,0.18377739504830748,0.45070047180628,0.21131423743279312
0.63375,0.623,0.6629999999999999,0.60875,0.7055,0.59175,0.8885,0.8255,0.80425,0.72875,0.77625,0.7465,0.4970434355138874,0.5025632922504302,0.5356613645142034,0.5003980160359373,0.49985304023288474,0.18377739504830748,0.45070047180628,0.21131423743279312
0.63375,0.62275,0.6627500000000001,0.60875,0.70525,0.5915,0.888,0.82525,0.804,0.72875,0.77625,0.74575,0.49705045823238175,0.5025492468134415,0.5356824326696864,0.5004225093304564,0.4998163002911059,0.1822526280055385,0.45144431221765496,0.21419001871913088
0.63375,0.6225,0.6622499999999999,0.6085,0.70475,0.59125,0.8875,0.82475,0.8035,0.7290000000000001,0.7759999999999999,0.7452500000000001,0.4970539695916289,0.5025948944836546,0.5356086941254959,0.5003673994177882,0.4997856836729569,0.1822526280055385,0.45144431221765496,0.21419001871913088
0.63375,0.6225,0.662,0.6082500000000001,0.7045,0.59125,0.8875,0.8245,0.80325,0.72925,0.77575,0.7454999999999999,0.4970469468731346,0.5025948944836546,0.535524421503564,0.5003367827996392,0.4997795603493271,0.1822526280055385,0.45144431221765496,0.21419001871913088
0.63375,0.6225,0.66175,0.608,0.7042499999999999,0.59125,0.8875,0.8242499999999999,0.8029999999999999,0.7295,0.7755,0.74575,0.4970188559991573,0.502580849046666,0.5354787738333509,0.5002877962106007,0.49974894373117806,0.1822526280055385,0.45144431221765496,0.21419001871913088
0.63375,0.6225,0.6615000000000001,0.60775,0.7040000000000001,0.59125,0.8875,0.8240000000000001,0.8027500000000001,0.7297499999999999,0.7752500000000001,0.746,0.49700129920292146,0.5025878717651603,0.5354366375223849,0.5002939195342305,0.4996693405239906,0.18099374635143806,0.4495875865381905,0.21468039009641768
0.6335000000000001,0.6225,0.66125,0.6075,0.70375,0.591,0.887,0.82325,0.8025,0.7297499999999999,0.775,0.74625,0.4969767196881913,0.5025492468134415,0.5353839671336774,0.5003306594760094,0.49962647726456766,0.18275874566667866,0.45033051279907715,0.21544466409530932
0.63325,0.6225,0.66125,0.6075,0.70375,0.59075,0.8865000000000001,0.8227500000000001,0.8025,0.7295,0.775,0.74625,0.49700832192141575,0.5025281786579585,0.5354296148038906,0.5003551527705286,0.49958973732278883,0.18275874566667866,0.45033051279907715,0.21544466409530932
0.633,0.6225,0.66125,0.6075,0.70375,0.5905,0.8859999999999999,0.8222499999999999,0.8025,0.72925,0.775,0.74625,0.4970188559991573,0.5025738263281716,0.5354928192703395,0.500373522741418,0.4995468740573802,0.18275874566667866,0.45033051279907715,0.21544466409530932
0.63275,0.6225,0.66125,0.6075,0.70375,0.5902499999999999,0.8855,0.82175,0.8022499999999999,0.72875,0.775,0.746,0.49700832192141575,0.5025878717651603,0.5355384669405527,0.5004041393595671,0.4994856408270678,0.18275874566667866,0.45033051279907715,0.21544466409530932
0.6325,0.6225,0.66125,0.6075,0.70375,0.59,0.885,0.82125,0.802,0.7282500000000001,0.775,0.74575,0.4970574809508761,0.5025843604059131,0.535587625970013,0.5004347559837017,0.4995162574512025,0.1812403926832581,0.4484739177125395,0.21669136218563284
0.6325,0.6225,0.66125,0.6075,0.70375,0.59,0.885,0.82125,0.80175,0.728,0.775,0.7454999999999999,0.49708908318410056,0.5026089399206433,0.5356367849994733,0.5003673994237738,0.4995162574512025,0.1825072895706465,0.446121954462901,0.21708152108479212
0.6325,0.6225,0.66125,0.6075,0.70375,0.59,0.885,0.82125,0.8015000000000001,0.72775,0.775,0.7452500000000001,0.49711717405807787,0.5026545875908565,0.5356122054847432,0.5004102626891824,0.49947951750942365,0.1837597571653985,0.44612326039217,0.21966804082039273
0.6325,0.6225,0.6609999999999999,0.6072500000000001,0.70375,0.59,0.8847499999999999,0.821,0.80175,0.7275,0.775,0.7447499999999999,0.49714175357280804,0.5026826784648337,0.5356122054847432,0.5004347559837017,0.4994305309203852,0.178226134363538,0.4463692467656707,0.21601888325104346
0.6325,0.62275,0.6607500000000001,0.607,0.70375,0.59,0.8845000000000001,0.8205,0.802,0.7275,0.7747499999999999,0.7445,0.4971733558060325,0.5027283261350469,0.5356402963587205,0.5004225093364421,0.49943665423802935,0.17772001670239782,0.4464928291569795,0.21544673023191127
0.6325,0.623,0.6605,0.60675,0.70375,0.59,0.88425,0.82,0.8022499999999999,0.7275,0.7745000000000001,0.74425,0.4971452649320552,0.5026932125425753,0.5356297622809789,0.5003857693886776,0.49946114752656295,0.17772001670239782,0.4464928291569795,0.21544673023191127
0.6325,0.6232500000000001,0.66025,0.6065,0.70375,0.59,0.884,0.8195,0.8025,0.7275,0.77425,0.7440000000000001,0.49714175357280804,0.502668633027845,0.5356051827662488,0.5004225093244707,0.49947339416185127,0.17772001670239782,0.4464928291569795,0.21544673023191127
0.6325,0.6235,0.66025,0.6065,0.70375,0.58975,0.88325,0.81875,0.8027500000000001,0.7275,0.774,0.74375,0.49708908318410056,0.5026651216685979,0.5355946486885074,0.5004286326481006,0.49947339416185127,0.17772001670239782,0.4464928291569795,0.21544673023191127
0.6325,0.62375,0.6605,0.60675,0.70375,0.5895,0.88275,0.81825,0.8025,0.7275,0.77375,0.74375,0.4971241967765722,0.5026264967168791,0.5356578531549563,0.5004408792893745,0.499491764126755,0.17421727548324975,0.44711086556090096,0.20958978923298668
0.6325,0.62375,0.6607500000000001,0.607,0.70375,0.5892499999999999,0.88225,0.818,0.8025,0.7275,0.77375,0.74375,0.4971557990097967,0.5026510762316092,0.5356438077179676,0.5004531259366342,0.49948564080911084,0.17372077735053382,0.446738683401166,0.20854202685483192
0.6325,0.62375,0.6609999999999999,0.6072500000000001,0.70375,0.589,0.8817499999999999,0.8177500000000001,0.8025,0.7275,0.77375,0.74375,0.4971733558060325,0.5026580989501036,0.5356402963587205,0.5004837425547832,0.49946727083822146,0.17372077735053382,0.446738683401166,0.20854202685483192
0.6325,0.62375,0.66125,0.6075,0.70375,0.58875,0.88125,0.8175,0.8025,0.7275,0.77375,0.74375,0.49714175357280804,0.5026932125425753,0.5356402963587205,0.5004408792953602,0.4995162574332455,0.17472820290860208,0.44797737114032166,0.21074396492554168
0.6325,0.6235,0.66125,0.6072500000000001,0.70375,0.58875,0.88125,0.8175,0.8025,0.72725,0.77375,0.74375,0.4971557990097967,0.5027423715720355,0.5356613645142034,0.500416386000841,0.49957749066954354,0.17397543891564182,0.44822557912996713,0.21122297315813457
0.6325,0.6232500000000001,0.66125,0.607,0.70375,0.58875,0.88125,0.8175,0.8025,0.727,0.77375,0.74375,0.4971347308543137,0.5027599283682713,0.5356086941254959,0.500373522741418,0.49966934052997625,0.17397543891564182,0.44822557912996713,0.21122297315813457
0.6325,0.623,0.66125,0.60675,0.70375,0.58875,0.88125,0.8175,0.8025,0.72675,0.77375,0.74375,0.49711015133958353,0.5027318374942941,0.5355981600477545,0.5003551527705286,0.49977343702569726,0.17397543891564182,0.44822557912996713,0.21122297315813457
0.63225,0.62275,0.66125,0.60625,0.70375,0.58875,0.88125,0.818,0.80175,0.7265,0.77375,0.7440000000000001,0.49709259454334775,0.5027493942905299,0.5356332736402262,0.5002633029160816,0.4998652868801443,0.1749844687688464,0.4485973695109214,0.21170138811955985
0.632,0.6225,0.66125,0.60575,0.70375,0.58875,0.88125,0.8184999999999999,0.8009999999999999,0.72625,0.77375,0.74425,0.4971136626988307,0.5027423715720355,0.5356613645142034,0.500220439650673,0.49992652011644234,0.17422689501167402,0.44909260861748285,0.21170049154002443
0.6317499999999999,0.6225,0.66125,0.6054999999999999,0.70375,0.58875,0.88125,0.8190000000000001,0.80025,0.72625,0.77375,0.7445,0.49709259454334775,0.5026721443870923,0.5356999894659222,0.5001653297380046,0.49996326005822117,0.17422689501167402,0.44909260861748285,0.21170049154002443
0.6315,0.6225,0.66125,0.60525,0.70375,0.58875,0.88125,0.8195,0.7995,0.72625,0.77375,0.7447499999999999,0.4970364127953931,0.5026861898240809,0.5357175462621581,0.5000918498544471,0.4999755067054808,0.17422689501167402,0.44909260861748285,0.21170049154002443
0.63125,0.6225,0.66125,0.605,0.70375,0.58875,0.88125,0.82,0.79875,0.72625,0.77375,0.745,0.4970680150286176,0.5026932125425753,0.5357456371361354,0.5000428632654086,0.49998775335274037,0.17422689501167402,0.44909260861748285,0.21170049154002443
0.63125,0.6225,0.66125,0.605,0.70375,0.58875,0.88125,0.82,0.79875,0.72625,0.77375,0.745,0.4970539695916289,0.5026510762316092,0.5357140349029109,0.5000183699708894,0.5000061233236298,0.1767414497296023,0.4485980224755559,0.21574457116314194
0.63125,0.62225,0.6609999999999999,0.605,0.70375,0.5885,0.8817499999999999,0.82,0.7985,0.72625,0.7735,0.7454999999999999,0.49703992415464027,0.5026405421538678,0.535671898591945,0.5,0.5,0.17599029003177835,0.4494641362761959,0.21296403477048267
0.63125,0.622,0.6605,0.605,0.7034999999999999,0.58825,0.8825,0.81975,0.7975,0.72625,0.7735,0.7465,0.4970188559991573,0.5026791671055866,0.5355700691737771,0.49998775335274037,0.49993876676370197,0.17624816018715894,0.44673855280823904,0.21154109025375734
0.63125,0.62175,0.66,0.60475,0.70325,0.588,0.8835,0.8192499999999999,0.7965000000000001,0.72625,0.77375,0.74775,0.4970434355138874,0.5026826784648337,0.5355103760665754,0.5000367399417788,0.4998407935856251,0.17624816018715894,0.44673855280823904,0.21154109025375734
0.63125,0.6214999999999999,0.6595,0.6045,0.703,0.58775,0.8845000000000001,0.81875,0.7955,0.72625,0.774,0.7490000000000001,0.4969942764844271,0.5026651216685979,0.5355033533480811,0.5000489865890384,0.49969995714812526,0.17524073462909068,0.44611894775280747,0.20914631296907304
0.63125,0.62125,0.659,0.60425,0.7027500000000001,0.5875,0.8855,0.81825,0.7945,0.72625,0.77425,0.7502500000000001,0.4970258787176516,0.5026721443870923,0.5355595350960357,0.5000796032071875,0.49958973732278883,0.17524073462909068,0.44611894775280747,0.20914631296907304
0.63125,0.62125,0.65875,0.604,0.7025,0.5875,0.8859999999999999,0.8177500000000001,0.79375,0.72625,0.7747499999999999,0.7509999999999999,0.4970329014361459,0.5026861898240809,0.5355595350960357,0.5001285897962259,0.49949176414471197,0.16869326908861673,0.4464878620165951,0.20367988998641526
0.63125,0.62125,0.65875,0.60375,0.7025,0.5875,0.88625,0.8175,0.79375,0.72625,0.775,0.75125,0.49707854910635907,0.5026721443870923,0.5356613645142034,0.5001898230325239,0.49945502420293314,0.16869326908861673,0.4464878620165951,0.20367988998641526
0.63125,0.62125,0.65875,0.60375,0.7025,0.5875,0.88625,0.8175,0.79375,0.72625,0.775,0.75125,0.49710312862108924,0.5026405421538678,0.5356894553881808,0.5001959463561537,0.49943053090841394,0.16869326908861673,0.4464878620165951,0.20367988998641526
0.63125,0.62125,0.6585,0.604,0.7025,0.5875,0.88625,0.8175,0.794,0.72625,0.775,0.75075,0.4970961059025949,0.5026370307946206,0.5356543417957091,0.5002571795924518,0.49943053090841394,0.16869326908861673,0.4464878620165951,0.20367988998641526
0.63125,0.62125,0.6585,0.60425,0.7025,0.58725,0.8859999999999999,0.8175,0.79375,0.726,0.775,0.75,0.4970855718248534,0.5026405421538678,0.5355946486885074,0.5002510562688219,0.4994427775556735,0.16869326908861673,0.4464878620165951,0.20367988998641526
0.63125,0.62125,0.6585,0.6045,0.7025,0.5870000000000001,0.88575,0.8175,0.7935,0.72575,0.775,0.74925,0.4970750377471119,0.5026335194353735,0.5355981600477545,0.5002449329451921,0.49950401079197154,0.16869326908861673,0.4464878620165951,0.20367988998641526
0.63125,0.62125,0.6585,0.60475,0.7025,0.58675,0.8855,0.8175,0.79325,0.7254999999999999,0.775,0.7484999999999999,0.49711015133958353,0.5026089399206433,0.5355806032515187,0.5002510562688219,0.4995346274101206,0.16945404831486494,0.44921096268255345,0.2041492499798262
0.63125,0.62125,0.6585,0.605,0.7025,0.5865,0.8852500000000001,0.8175,0.7929999999999999,0.7252500000000001,0.775,0.74775,0.4970820604656062,0.5026159626391377,0.5355735805330243,0.5002877962106007,0.4996019839700484,0.16869647455769254,0.45007786004075484,0.20289570136670598
0.63125,0.62125,0.65875,0.605,0.7025,0.58625,0.885,0.8175,0.7925,0.725,0.775,0.7475,0.49709259454334775,0.5026194739983848,0.5355911373292601,0.500281672886971,0.49966321720036083,0.16869647455769254,0.45007786004075484,0.20289570136670598
0.63125,0.62125,0.65875,0.605,0.7025,0.58625,0.885,0.8175,0.7925,0.725,0.775,0.7475,0.49706099231012324,0.5026440535131149,0.5356262509217318,0.500342906123269,0.49963260057622616,0.16843860752350873,0.44933467413040173,0.20395462549279839
0.63125,0.621,0.6585,0.60475,0.7025,0.58625,0.885,0.8175,0.7925,0.725,0.775,0.7475,0.4970680150286176,0.502601917202149,0.5356613645142034,0.5003245361523796,0.49965709387074536,0.16843860752350873,0.44933467413040173,0.20395462549279839
0.63125,0.62075,0.65825,0.6045,0.7025,0.58625,0.885,0.8175,0.7925,0.725,0.775,0.7475,0.4970329014361459,0.5025984058429018,0.5356402963587205,0.5003061661814902,0.499669340518005,0.16692987406851237,0.4489637994363232,0.20337779788510052
0.63125,0.6204999999999999,0.65825,0.60425,0.7025,0.58625,0.8847499999999999,0.8175,0.7929999999999999,0.725,0.775,0.7475,0.49702236735840444,0.5026159626391377,0.5356157168439903,0.500281672886971,0.49965097054711555,0.16692987406851237,0.4489637994363232,0.20337779788510052
0.63125,0.62025,0.65825,0.604,0.7025,0.58625,0.8845000000000001,0.8175,0.7935,0.725,0.775,0.7475,0.4970153446399101,0.502601917202149,0.5356297622809789,0.500220439650673,0.49962035392896653,0.16843860752350873,0.4498303065521313,0.2042437833120737
0.63125,0.62,0.65825,0.60375,0.7025,0.58625,0.88425,0.8175,0.794,0.725,0.775,0.7475,0.49703992415464027,0.5026089399206433,0.5356192282032375,0.5001959463561537,0.4996693405239906,0.16843860752350873,0.4498303065521313,0.2042437833120737
0.63125,0.62,0.6585,0.60375,0.7025,0.58625,0.884,0.8175,0.7945,0.725,0.775,0.7475,0.4970293900768988,0.5026089399206433,0.5355700691737771,0.5001775763852643,0.4996203539349522,0.16843860752350873,0.4498303065521313,0.2042437833120737
0.63125,0.62,0.65875,0.60375,0.7025,0.58625,0.88375,0.8175,0.7945,0.725,0.7747499999999999,0.7475,0.4970153446399101,0.5026089399206433,0.5355700691737771,0.5001898230325239,0.49957749066954354,0.17045185434450894,0.447973189093886,0.2049233954528586
0.63125,0.62,0.65875,0.60375,0.7025,0.58625,0.88375,0.8175,0.794,0.725,0.7745000000000001,0.7475,0.4970258787176516,0.5025703149689245,0.5356086941254959,0.5001898230325239,0.49956524402228397,0.17020200254361306,0.44809676994880754,0.2034814947697581
0.63125,0.62,0.65875,0.60375,0.7025,0.58625,0.88375,0.8175,0.7935,0.725,0.77425,0.7475,0.4970434355138874,0.5025527581726886,0.5356157168439903,0.5002388096215623,0.499595860640433,0.17020200254361306,0.44809676994880754,0.2034814947697581
0.63125,0.62,0.65875,0.60375,0.7025,0.58625,0.88375,0.8175,0.7929999999999999,0.725,0.774,0.7475,0.49700832192141575,0.5025562695319358,0.5356016714070017,0.5002449329451921,0.49958361399317336,0.17020200254361306,0.44809676994880754,0.2034814947697581
0.63125,0.62025,0.65875,0.60375,0.7025,0.58625,0.88375,0.8175,0.7925,0.725,0.77375,0.7475,0.49703992415464027,0.5026124512798904,0.5356227395624846,0.5002571795924518,0.4995713673459138,0.16945565261000123,0.44896327706461564,0.20386826086151436
0.63125,0.6204999999999999,0.65875,0.60375,0.7025,0.58625,0.88375,0.8175,0.7925,0.725,0.77375,0.7475,0.4970750377471119,0.5026124512798904,0.5356578531549563,0.5002265629743027,0.4996203539349522,0.16945565261000123,0.44896327706461564,0.20386826086151436
0.63125,0.62075,0.65875,0.60375,0.7025,0.58625,0.88375,0.8175,0.7925,0.725,0.77375,0.7475,0.49705045823238175,0.5026264967168791,0.5356613645142034,0.5002020696797835,0.49971220378939923,0.16970870987997294,0.44921056936738535,0.20338964814303317
0.63125,0.621,0.65875,0.60375,0.7025,0.58625,0.88375,0.8175,0.7925,0.725,0.77375,0.7475,0.49703992415464027,0.5026405421538678,0.5356402963587205,0.5001775763852643,0.49977343702569726,0.16970870987997294,0.44921056936738535,0.20338964814303317
0.63125,0.62125,0.65875,0.60375,0.7025,0.58625,0.88375,0.8175,0.7925,0.725,0.77375,0.7475,0.49706450366937044,0.5026089399206433,0.5356262509217318,0.5001592064143748,0.4998469169092549,0.169955356211793,0.44859148668366133,0.20367490784316464
0.63125,0.62125,0.65875,0.60375,0.7025,0.58625,0.88375,0.8175,0.7925,0.725,0.77375,0.7475,0.49703992415464027,0.5025878717651603,0.5356157168439903,0.5001836997088941,0.49991427346918277,0.169955356211793,0.44859148668366133,0.20367490784316464
0.63125,0.62125,0.65875,0.60375,0.7025,0.58625,0.88375,0.8175,0.7925,0.725,0.77375,0.7475,0.4970329014361459,0.5025457354541943,0.5355525123775413,0.5002449329451921,0.4999203967928126,0.169955356211793,0.44859148668366133,0.20367490784316464
0.63125,0.62125,0.65875,0.60375,0.7025,0.58625,0.88375,0.8175,0.7925,0.725,0.77375,0.7475,0.4970539695916289,0.5025738263281716,0.5355103760665754,0.5002939195342305,0.4998285469383655,0.169955356211793,0.44859148668366133,0.20367490784316464
0.63125,0.62125,0.65875,0.60375,0.7025,0.58625,0.8835,0.8175,0.7922499999999999,0.725,0.77375,0.74775,0.49710312862108924,0.5025738263281716,0.535545489659047,0.5002939195342305,0.4997550670548079,0.16819035689655237,0.44859135609073447,0.20280922208485888
0.63125,0.62125,0.65875,0.60375,0.7025,0.58625,0.88325,0.8175,0.792,0.725,0.77375,0.748,0.4970820604656062,0.5025562695319358,0.5355911373292601,0.5002755495633412,0.49971220378939923,0.16819035689655237,0.44859135609073447,0.20280922208485888
0.63125,0.62125,0.65875,0.60375,0.7025,0.58625,0.883,0.8175,0.79175,0.725,0.77375,0.7482500000000001,0.4970855718248534,0.502559780891183,0.5356157168439903,0.50031228950512,0.4996815871712502,0.16819035689655237,0.44859135609073447,0.20280922208485888
0.63125,0.62125,0.65875,0.60375,0.7025,0.58625,0.88275,0.8175,0.7915000000000001,0.725,0.77375,0.7484999999999999,0.49710312862108924,0.5025948944836546,0.5356438077179676,0.50031228950512,0.49969383381850985,0.16819035689655237,0.44859135609073447,0.20280922208485888
0.63125,0.62125,0.65875,0.60375,0.7025,0.58625,0.8825,0.8175,0.79125,0.725,0.77375,0.74875,0.49711717405807787,0.5025913831244074,0.5356367849994733,0.500281672886971,0.49969383381850985,0.1682047893103855,0.44747572683479253,0.19907720794880845
0.63125,0.62125,0.65875,0.60375,0.7025,0.58625,0.8825,0.8177500000000001,0.7915000000000001,0.725,0.774,0.7490000000000001,0.49706450366937044,0.5025984058429018,0.5355946486885074,0.5003429061172834,0.4996754638476204,0.16795653868342916,0.4478464709359442,0.19773300349761563
0.63125,0.62125,0.65875,0.60375,0.7025,0.58625,0.8825,0.818,0.79175,0.725,0.77425,0.74925,0.4970820604656062,0.502622985357632,0.5355419782997999,0.5004225093184851,0.499626477258582,0.16795653868342916,0.4478464709359442,0.19773300349761563
0.63125,0.62125,0.65875,0.60375,0.7025,0.58625,0.8825,0.81825,0.792,0.725,0.7745000000000001,0.7495,0.49711717405807787,0.5026405421538678,0.5355525123775413,0.5003673994058169,0.49958361399317336,0.16795653868342916,0.4478464709359442,0.19773300349761563
0.63125,0.62125,0.659,0.60375,0.7025,0.58625,0.8825,0.8184999999999999,0.79175,0.725,0.7747499999999999,0.7495,0.49706099231012324,0.5026405421538678,0.5355314442220583,0.5003245361404083,0.49953462740413496,0.16795653868342916,0.4478464709359442,0.19773300349761563
0.63125,0.62125,0.65925,0.60375,0.7025,0.58625,0.8825,0.81875,0.7915000000000001,0.725,0.775,0.7495,0.4970153446399101,0.5026124512798904,0.5355981600477545,0.5003367827876679,0.49958361399317336,0.16720056922139306,0.4479701823837925,0.19590938680708392
0.63125,0.62125,0.6595,0.60375,0.7025,0.58625,0.8825,0.81875,0.7909999999999999,0.725,0.775,0.74925,0.49703992415464027,0.5025984058429018,0.5356157168439903,0.5002939195282449,0.4996387239058416,0.16796295274277756,0.44908385120944355,0.19571574625240143
0.63125,0.62125,0.65975,0.60375,0.7025,0.58625,0.8825,0.81875,0.7905,0.725,0.775,0.7490000000000001,0.49703992415464027,0.5026580989501036,0.5356086941254959,0.5002633029160816,0.4996693405239906,0.16947328737171344,0.4485893956604435,0.19600433021224475
0.63125,0.62125,0.66,0.60375,0.7025,0.58625,0.8825,0.81875,0.79,0.725,0.775,0.74875,0.4970153446399101,0.5026616103093507,0.5355911373292601,0.5003184128287498,0.49971220378939923,0.16947328737171344,0.4485893956604435,0.19600433021224475
0.63125,0.62125,0.66,0.60375,0.7025,0.58625,0.8825,0.81875,0.79,0.725,0.775,0.74875,0.49698374240668564,0.5026897011833281,0.5356297622809789,0.5003673994177882,0.49969383381850985,0.16947328737171344,0.4485893956604435,0.19600433021224475
0.63125,0.62125,0.66,0.60375,0.7025,0.58625,0.8825,0.81875,0.78975,0.725,0.775,0.7490000000000001,0.49703992415464027,0.5026967239018224,0.5355946486885074,0.5003490294468987,0.4996693405239906,0.16947328737171344,0.4485893956604435,0.19600433021224475
0.63125,0.62125,0.66,0.60375,0.7025,0.58625,0.8825,0.81875,0.7895,0.725,0.775,0.74925,0.49700129920292146,0.5027283261350469,0.5356086941254959,0.5003306594760094,0.4996326005822118,0.16947328737171344,0.4485893956604435,0.19600433021224475
0.63125,0.62125,0.66,0.60375,0.7025,0.58625,0.8825,0.81875,0.78925,0.725,0.775,0.7495,0.4970434355138874,0.5026616103093507,0.535671898591945,0.5003245361523796,0.4996387239058416,0.16745202531742523,0.4492084783441675,0.19821251946841628
0.63125,0.62125,0.66,0.60375,0.7025,0.58625,0.8825,0.81875,0.789,0.725,0.775,0.7497499999999999,0.49700129920292146,0.502622985357632,0.5356789213104393,0.5003245361523796,0.4996326005822118,0.1712398909820904,0.44797031297671946,0.19590613230829665
0.63125,0.62125,0.65975,0.60375,0.7025,0.58625,0.8825,0.81875,0.78875,0.725,0.775,0.7497499999999999,0.49701183328066295,0.5026089399206433,0.5356683872326977,0.50031228950512,0.4996754638476204,0.1712398909820904,0.44797031297671946,0.19590613230829665
0.63125,0.62125,0.6595,0.60375,0.7025,0.58625,0.8825,0.81875,0.78875,0.725,0.775,0.7495,0.4970258787176516,0.5026405421538678,0.5356683872326977,0.5003490294468987,0.49964484723545705,0.1712398909820904,0.44797031297671946,0.19590613230829665
0.63125,0.62125,0.65925,0.60375,0.7025,0.58625,0.8825,0.81875,0.78875,0.725,0.775,0.74925,0.49707854910635907,0.5026616103093507,0.5356438077179676,0.5003857693886776,0.4996203539469235,0.1712398909820904,0.44797031297671946,0.19590613230829665
0.63125,0.62125,0.659,0.60375,0.7025,0.58625,0.8825,0.81875,0.78875,0.725,0.775,0.7490000000000001,0.4970539695916289,0.5026791671055866,0.535650830436462,0.5003490294468987,0.4996632172123321,0.16997780385891406,0.4485897889756116,0.19686864441011093
0.63125,0.62125,0.65875,0.60375,0.7025,0.58625,0.8825,0.81875,0.78875,0.725,0.775,0.74875,0.49707854910635907,0.5026826784648337,0.5356683872326977,0.5003367827996392,0.49971832712500036,0.16997780385891406,0.4485897889756116,0.19686864441011093
0.63125,0.62125,0.65875,0.60375,0.7025,0.58625,0.88225,0.81875,0.78875,0.725,0.775,0.7490000000000001,0.4970820604656062,0.5027002352610696,0.5356754099511921,0.5003000428578603,0.4997244504486301,0.16997780385891406,0.4485897889756116,0.19686864441011093
0.63125,0.62125,0.65875,0.60375,0.7025,0.58625,0.882,0.81875,0.78875,0.725,0.775,0.74925,0.4970188559991573,0.5026510762316092,0.535671898591945,0.5003184128287498,0.49977956035531274,0.16997780385891406,0.4485897889756116,0.19686864441011093
0.63125,0.62125,0.65875,0.60375,0.7025,0.58625,0.8817499999999999,0.81875,0.78875,0.725,0.775,0.7495,0.49694160609571963,0.502622985357632,0.5356578531549563,0.5003061661814902,0.4998163002911059,0.1709884348860582,0.45007511605290257,0.19754167536592981
0.63125,0.62125,0.65875,0.60375,0.7025,0.58625,0.8815000000000001,0.81875,0.78875,0.725,0.775,0.7497499999999999,0.4969135152217423,0.5026370307946206,0.5355981600477545,0.5003245361523796,0.4997183271070434,0.16922183439687802,0.44970398017297014,0.19686874450187233
0.63125,0.62125,0.6585,0.60375,0.7022499999999999,0.586,0.88125,0.8184999999999999,0.78925,0.725,0.7752500000000001,0.7502500000000001,0.49690298114400083,0.5026194739983848,0.5356157168439903,0.5003061661814902,0.49965097054711555,0.16922183439687802,0.44970398017297014,0.19686874450187233
0.63125,0.62125,0.65825,0.60375,0.7020000000000001,0.58575,0.88125,0.81825,0.78975,0.725,0.7755,0.7505,0.4968784016292707,0.5025703149689245,0.5356086941254959,0.5003061661814902,0.499638723899856,0.17124630504143878,0.45032319344962113,0.19715670546632807
0.63125,0.62125,0.6579999999999999,0.60375,0.70175,0.5855,0.88125,0.818,0.79025,0.725,0.77575,0.75075,0.49689244706625935,0.502622985357632,0.5356086941254959,0.5002449329451921,0.49962647725259635,0.17124630504143878,0.45032319344962113,0.19715670546632807
0.63125,0.62125,0.6577500000000001,0.60375,0.7015,0.5852499999999999,0.88125,0.8177500000000001,0.7907500000000001,0.725,0.7759999999999999,0.7509999999999999,0.49690298114400083,0.5026300080761262,0.5356332736402262,0.5001959463561537,0.49960810728170696,0.16973757158644245,0.4487144145739482,0.1981236701349827
0.63125,0.62125,0.6575,0.60375,0.70125,0.585,0.88125,0.8175,0.79125,0.725,0.77625,0.75125,0.4969240492994838,0.5025843604059131,0.5355806032515187,0.5002020696797835,0.4996142306113224,0.16973757158644245,0.4487144145739482,0.1981236701349827
0.63125,0.62125,0.6575,0.60375,0.70125,0.585,0.88125,0.8175,0.79125,0.725,0.77625,0.75125,0.49697320832894415,0.5026300080761262,0.5355560237367885,0.5002020696797835,0.49955912069865416,0.16973757158644245,0.4487144145739482,0.1981236701349827
0.63125,0.621,0.6575,0.60375,0.70125,0.585,0.88125,0.8172499999999999,0.79125,0.725,0.77625,0.75125,0.4970574809508761,0.5026932125425753,0.53556655781453,0.5002081930034133,0.4994978874623561,0.16973757158644245,0.4487144145739482,0.1981236701349827
0.63125,0.62075,0.6575,0.60375,0.70125,0.585,0.88125,0.8170000000000001,0.79125,0.725,0.77625,0.75125,0.4970469468731346,0.5026721443870923,0.5356122054847432,0.5001836997088941,0.49950401078598594,0.16973757158644245,0.4487144145739482,0.1981236701349827
0.63125,0.6204999999999999,0.6575,0.60375,0.70125,0.585,0.88125,0.81675,0.79125,0.725,0.77625,0.75125,0.4970820604656062,0.5026897011833281,0.5356227395624846,0.5001714530616345,0.49952850408050514,0.1702292599549463,0.44846738345703224,0.20022936239439995
0.63125,0.62025,0.6577500000000001,0.60375,0.70125,0.585,0.88125,0.81675,0.79125,0.725,0.77625,0.75125,0.49706099231012324,0.5027353488535412,0.5357210576214052,0.5001224664725961,0.49956524402228397,0.1702292599549463,0.44846738345703224,0.20022936239439995
0.63125,0.62,0.6579999999999999,0.60375,0.70125,0.585,0.88125,0.81675,0.79125,0.725,0.77625,0.75125,0.4970364127953931,0.5027353488535412,0.5357035008251694,0.5000306166181491,0.4996019839640628,0.1702292599549463,0.44846738345703224,0.20022936239439995
0.63125,0.62,0.65825,0.60375,0.70125,0.585,0.88125,0.8170000000000001,0.79125,0.725,0.77625,0.75125,0.49699778784367427,0.5027213034165525,0.5356683872326977,0.49998775335274037,0.4996448472294714,0.16693949359693663,0.44821995902494827,0.20406315347313939
0.63125,0.62,0.6585,0.60375,0.70125,0.585,0.88125,0.8172499999999999,0.79125,0.725,0.77625,0.75125,0.4969767196881913,0.5026861898240809,0.5356016714070017,0.4999938766763702,0.4996448472294714,0.16643337593579643,0.4487155914466777,0.20549968681136205
0.63125,0.62,0.65875,0.60375,0.70125,0.585,0.88125,0.8175,0.79125,0.725,0.77625,0.75125,0.4969661856104498,0.5026405421538678,0.5356227395624846,0.5,0.4996754638476204,0.16643337593579643,0.4487155914466777,0.20549968681136205
0.63125,0.62,0.65875,0.60375,0.70125,0.585,0.88125,0.8175,0.79125,0.725,0.77625,0.75125,0.49697320832894415,0.5026054285613961,0.5356227395624846,0.5000061233236298,0.49971832711302905,0.16643337593579643,0.4487155914466777,0.20549968681136205
0.63125,0.61975,0.6585,0.60375,0.70125,0.585,0.88125,0.8172499999999999,0.79125,0.725,0.7765000000000001,0.75125,0.496948628814214,0.5025878717651603,0.5355981600477545,0.5000734798835577,0.49974282040754825,0.16643337593579643,0.4487155914466777,0.20549968681136205
0.63125,0.6195,0.65825,0.60375,0.70125,0.585,0.88125,0.8170000000000001,0.79125,0.725,0.7767499999999999,0.75125,0.4969661856104498,0.5025843604059131,0.5356227395624846,0.5000918498544471,0.49972445043665886,0.16643337593579643,0.4487155914466777,0.20549968681136205
0.63125,0.61925,0.6579999999999999,0.60375,0.70125,0.585,0.88125,0.81675,0.79125,0.725,0.777,0.75125,0.49702236735840444,0.5025632922504302,0.5356402963587205,0.5000979731780768,0.49965097055908686,0.16643337593579643,0.4487155914466777,0.20549968681136205
0.63125,0.619,0.6577500000000001,0.60375,0.70125,0.585,0.88125,0.8165,0.79125,0.725,0.77725,0.75125,0.4970188559991573,0.5025703149689245,0.5356016714070017,0.5001224664725961,0.4996019839700484,0.1596152152424418,0.451064810708464,0.1998414370580617
0.63125,0.61875,0.6579999999999999,0.6035,0.70125,0.585,0.88125,0.81625,0.79175,0.725,0.7775,0.7517499999999999,0.49700832192141575,0.5025632922504302,0.5355560237367885,0.5001102198253364,0.4995468740573802,0.1596152152424418,0.451064810708464,0.1998414370580617
0.63125,0.61875,0.6585,0.6032500000000001,0.70125,0.585,0.88125,0.81625,0.7922499999999999,0.725,0.7775,0.75225,0.4969767196881913,0.5025457354541943,0.5356192282032375,0.5001224664725961,0.49954075073375037,0.1596152152424418,0.451064810708464,0.1998414370580617
0.63125,0.61875,0.659,0.603,0.70125,0.585,0.88125,0.81625,0.7927500000000001,0.725,0.7775,0.75275,0.4969240492994838,0.5025352013764528,0.5356016714070017,0.5001714530616345,0.4995285040864908,0.1596152152424418,0.451064810708464,0.1998414370580617
0.631,0.61875,0.6595,0.603,0.70125,0.585,0.88125,0.81625,0.7929999999999999,0.725,0.7775,0.75325,0.49693458337722535,0.5025422240949472,0.5356613645142034,0.5002265629743027,0.4995101341096157,0.1596152152424418,0.451064810708464,0.1998414370580617
0.63075,0.61875,0.66,0.603,0.70125,0.585,0.88125,0.81625,0.79325,0.725,0.7775,0.75375,0.49696267425120266,0.5025703149689245,0.535692966747428,0.500281672886971,0.4994550241969475,0.16038080423290213,0.44982664687740326,0.199753304138993
0.6305,0.61875,0.66,0.6032500000000001,0.70125,0.585,0.88125,0.81625,0.7929999999999999,0.725,0.7775,0.75375,0.49696969696969695,0.5025878717651603,0.5356754099511921,0.5003796460650478,0.4994121609375245,0.16038080423290213,0.44982664687740326,0.199753304138993
0.63025,0.61875,0.66,0.6035,0.70125,0.585,0.88125,0.81625,0.7927500000000001,0.725,0.7775,0.75375,0.49699778784367427,0.5025984058429018,0.5356262509217318,0.5004041393595671,0.4993876676430053,0.16466356685634367,0.4484647685257194,0.20100436562349666
0.63,0.61875,0.66,0.60375,0.70125,0.585,0.88125,0.81625,0.7925,0.725,0.7775,0.75375,0.4970820604656062,0.5025632922504302,0.5356367849994733,0.5003551527705286,0.49940603761389474,0.17069689638119273,0.4493354576879632,0.20972814577145749
0.63,0.61875,0.65975,0.60375,0.70125,0.58475,0.8809999999999999,0.81625,0.7922499999999999,0.7247499999999999,0.7775,0.75325,0.4970680150286176,0.5025422240949472,0.535587625970013,0.5003612760941584,0.49940603761389474,0.169683056763776,0.4489647151231989,0.21077899218909674
0.63,0.61875,0.6595,0.60375,0.70125,0.5845,0.88075,0.81625,0.792,0.7245,0.7775,0.75275,0.4970715263878647,0.502496576424734,0.53556655781453,0.5003612760941584,0.49943665423802935,0.169683056763776,0.4489647151231989,0.21077899218909674
0.63,0.6185,0.65925,0.60375,0.701,0.5842499999999999,0.88075,0.81625,0.79125,0.7240000000000001,0.777,0.752,0.49710312862108924,0.5025211559394641,0.5355911373292601,0.5003490294468987,0.49944890087331767,0.169683056763776,0.4489647151231989,0.21077899218909674
0.63,0.6182500000000001,0.659,0.60375,0.70075,0.584,0.88075,0.81625,0.7905,0.7234999999999999,0.7765000000000001,0.75125,0.4971136626988307,0.5025071105024755,0.535587625970013,0.5003551527705286,0.49943665423204375,0.169683056763776,0.4489647151231989,0.21077899218909674
0.63,0.618,0.65875,0.60375,0.7005,0.58375,0.88075,0.81625,0.78975,0.723,0.7759999999999999,0.7505,0.4970820604656062,0.5025948944836546,0.5355911373292601,0.5003796460650478,0.4993999142962506,0.16892548300660365,0.449830698330912,0.21154687980388323
0.63,0.61775,0.65875,0.60375,0.70025,0.58375,0.8809999999999999,0.81625,0.78925,0.72275,0.7755,0.7502500000000001,0.4970750377471119,0.5026264967168791,0.5355700691737771,0.500342906123269,0.49943665423802935,0.16892548300660365,0.449830698330912,0.21154687980388323
0.62975,0.61775,0.6585,0.6035,0.70025,0.58375,0.8815000000000001,0.816,0.7885,0.72225,0.7747499999999999,0.7497499999999999,0.4970539695916289,0.5026300080761262,0.5355384669405527,0.5003000428578603,0.49943053090841394,0.16993130739073237,0.45032815905361806,0.2150867499087383
0.62975,0.61775,0.65825,0.6032500000000001,0.7005,0.58375,0.8817499999999999,0.816,0.7875,0.722,0.7745000000000001,0.7495,0.49700129920292146,0.5026124512798904,0.5354998419888339,0.5002877962106007,0.4994917641506976,0.17069048232184428,0.4497092084992083,0.2146032545321512
0.62975,0.61775,0.6579999999999999,0.603,0.70075,0.58375,0.882,0.816,0.7865000000000001,0.72175,0.77425,0.74925,0.4969942764844271,0.5026194739983848,0.5354787738333509,0.5003000428578603,0.4994978874683418,0.17069048232184428,0.4497092084992083,0.2146032545321512
0.62975,0.61775,0.6577500000000001,0.60275,0.701,0.58375,0.88225,0.816,0.7855,0.7215,0.774,0.7490000000000001,0.4969767196881913,0.5025562695319358,0.5354577056778679,0.5003367827996392,0.49950401078598594,0.17144645178388035,0.44995650080197813,0.21450964447057547
0.62975,0.61775,0.6575,0.6025,0.70125,0.58375,0.8825,0.816,0.7845,0.72125,0.77375,0.74875,0.49696969696969695,0.5025703149689245,0.5354471716001264,0.5003918927063218,0.49944890086733207,0.17144645178388035,0.44995650080197813,0.21450964447057547
0.63,0.6175,0.6575,0.6025,0.70125,0.58375,0.8825,0.81625,0.78375,0.72125,0.77375,0.74875,0.49697320832894415,0.5025878717651603,0.5354647283963623,0.5004225093244707,0.499387667631034,0.16943641355315273,0.4505754528927753,0.21230173971765295
0.63,0.6175,0.6575,0.6025,0.70125,0.58375,0.8825,0.81625,0.78375,0.72125,0.77375,0.74875,0.4970188559991573,0.5025703149689245,0.5355595350960357,0.5004408792953602,0.49925907783480816,0.16943641355315273,0.4505754528927753,0.21230173971765295
0.63,0.6175,0.6575,0.6025,0.70125,0.58375,0.8825,0.81625,0.78375,0.72125,0.77375,0.74875,0.4970188559991573,0.5025457354541943,0.5355911373292601,0.5004347559717304,0.49921621456341386,0.17019077872005253,0.44995741648885385,0.21354373956135816
0.62975,0.6175,0.6575,0.6025,0.70125,0.58375,0.88225,0.81575,0.78375,0.72125,0.77325,0.7484999999999999,0.49700129920292146,0.5025668036096773,0.5356086941254959,0.500416386000841,0.4992468311815629,0.17019077872005253,0.44995741648885385,0.21354373956135816
0.6295000000000001,0.6175,0.6575,0.6025,0.70125,0.58375,0.882,0.81525,0.78375,0.72125,0.77275,0.7482500000000001,0.49698374240668564,0.5026124512798904,0.5356332736402262,0.5003918927123074,0.4992713244760821,0.17019077872005253,0.44995741648885385,0.21354373956135816
0.62925,0.6175,0.6575,0.6025,0.70125,0.58375,0.8817499999999999,0.81475,0.78375,0.72125,0.77225,0.748,0.4969942764844271,0.5026194739983848,0.535650830436462,0.5003918927123074,0.49927744779372624,0.17019077872005253,0.44995741648885385,0.21354373956135816
0.629,0.61725,0.6575,0.6025,0.70125,0.58375,0.8817499999999999,0.8145,0.784,0.72125,0.772,0.7475,0.4969942764844271,0.5026370307946206,0.5356086941254959,0.5003796460650478,0.49929581775863,0.17019558848426464,0.45082392206827454,0.21373111619162738
0.62875,0.617,0.6575,0.6025,0.70125,0.58375,0.8817499999999999,0.8142499999999999,0.78425,0.72125,0.7717499999999999,0.747,0.49699778784367427,0.5026580989501036,0.5355946486885074,0.5004041393595671,0.4992713244641108,0.1709499567723612,0.44971012264969673,0.21459382528161086
0.62875,0.61675,0.6575,0.6025,0.70125,0.58375,0.882,0.8145,0.7845,0.72125,0.772,0.74675,0.49703992415464027,0.5026897011833281,0.5355735805330243,0.5004286326540862,0.4991794746096637,0.1709499567723612,0.44971012264969673,0.21459382528161086
0.62875,0.6164999999999999,0.6575,0.6025,0.70125,0.58375,0.88225,0.81475,0.78475,0.72125,0.77225,0.7465,0.49708908318410056,0.5026826784648337,0.5355735805330243,0.5004041393595671,0.4991855979392792,0.17220883530526487,0.4492155365077698,0.21497363287279145
0.62875,0.6164999999999999,0.6577500000000001,0.6025,0.701,0.5835,0.882,0.815,0.78475,0.72125,0.772,0.746,0.49711717405807787,0.5026405421538678,0.5356122054847432,0.5004286326481006,0.4992590778288225,0.16968626535404865,0.45057728273013925,0.215254324142286
0.62875,0.61675,0.6579999999999999,0.6025,0.70075,0.58325,0.8815000000000001,0.815,0.7845,0.72125,0.7715000000000001,0.74575,0.49711015133958353,0.5026475648723621,0.5356192282032375,0.5004531259366342,0.49927744780569755,0.16968626535404865,0.45057728273013925,0.215254324142286
0.629,0.617,0.65825,0.6025,0.7005,0.58275,0.8809999999999999,0.815,0.78425,0.721,0.7709999999999999,0.745,0.49715228765054953,0.5026721443870923,0.535650830436462,0.5003796460530765,0.49936317434250044,0.16968626535404865,0.45057728273013925,0.215254324142286
0.62925,0.61725,0.6585,0.6025,0.70025,0.58225,0.8805,0.815,0.784,0.72075,0.7705,0.74425,0.497162821728291,0.5026124512798904,0.5356683872326977,0.5003551527585574,0.49944890087331767,0.16968626535404865,0.45057728273013925,0.215254324142286
0.6295000000000001,0.6175,0.65875,0.6025,0.7,0.58175,0.88,0.815,0.78375,0.7204999999999999,0.77,0.7434999999999999,0.49715228765054953,0.5025773376874187,0.5356754099511921,0.5003796460530765,0.49946727083822146,0.17043582075673627,0.44958771866750474,0.21717096247615977
0.62975,0.6175,0.65875,0.6025,0.7,0.5815,0.88,0.815,0.78375,0.7202500000000001,0.77,0.743,0.49714175357280804,0.5026580989501036,0.5356192282032375,0.5003429061172834,0.4994305309024283,0.170698500676329,0.44983540274905526,0.21601423414038076
0.63,0.6175,0.65875,0.6025,0.7,0.58125,0.88,0.815,0.78375,0.72,0.77,0.7425,0.4971487762913024,0.5027002352610696,0.5355735805330243,0.5003184128287498,0.4994795174914667,0.170698500676329,0.44983540274905526,0.21601423414038076
0.63,0.6175,0.65875,0.6025,0.7,0.58125,0.88,0.815,0.78375,0.72,0.77,0.7425,0.4971347308543137,0.5027388602127884,0.535524421503564,0.500373522741418,0.4994611475205773,0.170698500676329,0.44983540274905526,0.21601423414038076
0.63,0.61775,0.65875,0.6025,0.70025,0.5815,0.88,0.815,0.7835,0.7197499999999999,0.7695000000000001,0.7425,0.4971241967765722,0.5027704624460129,0.535587625970013,0.5004163860068266,0.49944890087331767,0.17094674818208858,0.4502070625370826,0.21553202903759058
0.63,0.618,0.65875,0.6025,0.7005,0.58175,0.88,0.815,0.78325,0.7195,0.769,0.7425,0.4971066399803364,0.5028231328347204,0.5355841146107658,0.5004041393595671,0.49947951749745234,0.17094674818208858,0.4502070625370826,0.21553202903759058
0.63,0.6182500000000001,0.65875,0.6025,0.70075,0.5820000000000001,0.88,0.815,0.7829999999999999,0.71925,0.7685,0.7425,0.49703992415464027,0.5027809965237543,0.5355841146107658,0.5004225093304564,0.49949176413274066,0.17094674818208858,0.4502070625370826,0.21553202903759058
0.63,0.6185,0.6585,0.6025,0.701,0.5825,0.88,0.81475,0.7829999999999999,0.71925,0.768,0.74225,0.4970434355138874,0.5027318374942941,0.5355981600477545,0.50044700261899,0.49946727083822146,0.17094674818208858,0.4502070625370826,0.21553202903759058
0.63,0.61875,0.65825,0.6025,0.70125,0.583,0.88,0.8145,0.7829999999999999,0.71925,0.7675,0.742,0.49703992415464027,0.5026967239018224,0.5356297622809789,0.5004592492662496,0.4993937909546638,0.17094674818208858,0.4502070625370826,0.21553202903759058
0.63,0.61875,0.6579999999999999,0.6025,0.70125,0.58325,0.88,0.8142499999999999,0.78325,0.7195,0.7675,0.74175,0.49702236735840444,0.5027423715720355,0.5355700691737771,0.5004531259366342,0.49930806442384656,0.16642535758131172,0.44884322375510793,0.20881766743338473
0.63,0.61875,0.6577500000000001,0.6025,0.70125,0.5835,0.88,0.8140000000000001,0.7835,0.7197499999999999,0.7675,0.7415,0.4970750377471119,0.5026897011833281,0.5355630464552829,0.5005021125316582,0.4991917212808659,0.16642535758131172,0.44884322375510793,0.20881766743338473
0.63,0.61875,0.6575,0.6025,0.70125,0.58375,0.88,0.81375,0.78375,0.72,0.7675,0.74125,0.49712068541732507,0.5026756557463394,0.5355911373292601,0.500520482496562,0.49917947464557766,0.1669346838327245,0.44921396785625956,0.2080499878881386
0.63,0.6185,0.6575,0.6025,0.70125,0.58375,0.8795000000000001,0.8134999999999999,0.78425,0.7197499999999999,0.7675,0.74125,0.49712770813581936,0.5026159626391377,0.535587625970013,0.5005327291557929,0.49913661137418336,0.1669346838327245,0.44921396785625956,0.2080499878881386
0.63,0.6182500000000001,0.6575,0.6025,0.70125,0.58375,0.879,0.81325,0.78475,0.7195,0.7675,0.74125,0.4971136626988307,0.5025878717651603,0.5356051827662488,0.500581715750817,0.49910599476202,0.16593046374373208,0.4482229657350417,0.2072836908224332
0.63,0.618,0.6575,0.6025,0.70125,0.58375,0.8785,0.813,0.78525,0.71925,0.7675,0.74125,0.49711717405807787,0.5025984058429018,0.5356016714070017,0.5006062090453361,0.4990937481267317,0.16593046374373208,0.4482229657350417,0.2072836908224332
0.63,0.61775,0.6575,0.6025,0.70125,0.58375,0.878,0.8127500000000001,0.7857500000000001,0.7190000000000001,0.7675,0.74125,0.4970855718248534,0.5026616103093507,0.5356227395624846,0.5006184556806245,0.49909987144437584,0.16593046374373208,0.4477272027203853,0.2053713267100795
0.63,0.6175,0.6575,0.6025,0.70125,0.58375,0.8775,0.8125,0.78625,0.71875,0.7675,0.74125,0.49713824221356084,0.5027037466203167,0.5356051827662488,0.5006123323629803,0.49903251487846234,0.16667039961799548,0.4493383338051298,0.20822910482493398
0.63,0.6175,0.6575,0.6025,0.70125,0.58375,0.8775,0.8125,0.78625,0.71875,0.7675,0.74125,0.4971452649320552,0.5027634397275185,0.5356367849994733,0.5005755924152159,0.4990508848553374,0.16667039961799548,0.4493383338051298,0.20822910482493398
0.63,0.6175,0.6575,0.6025,0.70125,0.58375,0.8775,0.8125,0.78625,0.71875,0.7675,0.74125,0.49716984444678536,0.5027458829312828,0.5356367849994733,0.5005021125256726,0.49913661137418336,0.16667039961799548,0.4493383338051298,0.20822910482493398
0.63025,0.61775,0.6577500000000001,0.60275,0.70125,0.584,0.8775,0.8127500000000001,0.78675,0.71875,0.7675,0.74125,0.497183889883774,0.5026826784648337,0.5356367849994733,0.5004102626772112,0.49927744780569755,0.16667039961799548,0.4493383338051298,0.20822910482493398
0.6305,0.618,0.6579999999999999,0.603,0.70125,0.5842499999999999,0.8775,0.813,0.7872499999999999,0.71875,0.7675,0.74125,0.4971944239615155,0.5026405421538678,0.5356543417957091,0.5003551527705286,0.4993509276892552,0.16692346000916397,0.4492151447289891,0.20985927871783908
0.6305,0.6182500000000001,0.65825,0.6032500000000001,0.7015,0.5845,0.87725,0.81325,0.7877500000000001,0.7190000000000001,0.768,0.74075,0.49715228765054953,0.5026054285613961,0.5356543417957091,0.500342906123269,0.49943053089045697,0.16692346000916397,0.4492151447289891,0.20985927871783908
0.6305,0.6185,0.6585,0.6035,0.70175,0.58475,0.877,0.8134999999999999,0.78825,0.71925,0.7685,0.7402500000000001,0.49714175357280804,0.5025913831244074,0.535671898591945,0.500342906123269,0.4994672708322358,0.16692346000916397,0.4492151447289891,0.20985927871783908
0.6305,0.61875,0.65875,0.60375,0.7020000000000001,0.585,0.8767499999999999,0.81375,0.78875,0.7195,0.769,0.7397499999999999,0.49715228765054953,0.5026194739983848,0.5356683872326977,0.5003551527705286,0.49946114751459164,0.1679196617436717,0.45132151492029493,0.21291198220162236
0.63025,0.61875,0.65875,0.60375,0.7022499999999999,0.585,0.8765000000000001,0.81375,0.78875,0.7197499999999999,0.7695000000000001,0.73925,0.49716984444678536,0.5025948944836546,0.5356789213104393,0.5003980160359373,0.49944890086733207,0.16615947219264315,0.4499583306393421,0.20907599092398238
0.63,0.61875,0.65875,0.60375,0.7025,0.585,0.87625,0.81375,0.78875,0.72,0.77,0.73875,0.49716984444678536,0.5026124512798904,0.5356543417957091,0.5004102626831969,0.49949788745637047,0.16515846069392331,0.4504517414449269,0.20649007113233342
0.63,0.61875,0.65875,0.60375,0.7025,0.585,0.87625,0.81375,0.78875,0.72,0.77,0.73875,0.49716984444678536,0.5026264967168791,0.5356824326696864,0.5004102626831969,0.49953462740413496,0.1656645783550635,0.44995702317368574,0.20610429261262292
0.63,0.61875,0.65875,0.60375,0.7022499999999999,0.5852499999999999,0.87625,0.8134999999999999,0.7885,0.7197499999999999,0.77,0.7384999999999999,0.4971733558060325,0.5026545875908565,0.5356543417957091,0.5004408793013458,0.49958361399317336,0.1656645783550635,0.44995702317368574,0.20610429261262292
0.63,0.61875,0.65875,0.60375,0.7020000000000001,0.5855,0.87625,0.81325,0.78825,0.7195,0.77,0.7382500000000001,0.49719091260226833,0.5026545875908565,0.5356648758734506,0.5004286326540862,0.4995713673459138,0.1656645783550635,0.44995702317368574,0.20610429261262292
0.63025,0.61875,0.65875,0.604,0.70175,0.586,0.87625,0.813,0.78825,0.71925,0.77,0.738,0.49721900347624565,0.5026897011833281,0.5356613645142034,0.5003857693886776,0.4996019839640628,0.1656645783550635,0.44995702317368574,0.20610429261262292
0.6305,0.61875,0.65875,0.60425,0.7015,0.5865,0.87625,0.8127500000000001,0.78825,0.7190000000000001,0.77,0.73775,0.4971874012430212,0.5026826784648337,0.5356473190772147,0.5003673994177882,0.4995713673518994,0.1656645783550635,0.44995702317368574,0.20610429261262292
0.63075,0.61875,0.65875,0.6045,0.70125,0.5870000000000001,0.87625,0.8125,0.78825,0.71875,0.77,0.7375,0.4971944239615155,0.5026932125425753,0.5356402963587205,0.5003612760941584,0.49954687406336584,0.16414943084071876,0.44946126169541667,0.20505014256024082
0.631,0.61875,0.65875,0.60475,0.70125,0.5875,0.8759999999999999,0.8122499999999999,0.7885,0.7184999999999999,0.7697499999999999,0.7375,0.4972154921169985,0.5027037466203167,0.5356332736402262,0.5003306594760094,0.499510134121587,0.1649246424808001,0.4499532329060308,0.1978665295470197
0.63125,0.61875,0.65875,0.605,0.70125,0.588,0.87575,0.812,0.78875,0.71825,0.7695000000000001,0.7375,0.4972119807577513,0.5027388602127884,0.5355946486885074,0.5003490294468987,0.4995285040864908,0.1649246424808001,0.4499532329060308,0.1978665295470197
0.63125,0.61875,0.65875,0.605,0.70125,0.58825,0.8755,0.81175,0.78875,0.718,0.76925,0.7375,0.4971874012430212,0.5027353488535412,0.5355806032515187,0.500373522741418,0.49943053090841394,0.1649246424808001,0.4499532329060308,0.1978665295470197
0.63125,0.61875,0.65875,0.605,0.70125,0.5885,0.8752500000000001,0.8115000000000001,0.78875,0.7177500000000001,0.769,0.7375,0.497183889883774,0.5027037466203167,0.5356122054847432,0.5003857693886776,0.49938766763701964,0.16391882121786813,0.44933428235162104,0.1970050039662877
0.63125,0.619,0.65875,0.605,0.70125,0.5885,0.875,0.81125,0.7885,0.7175,0.76875,0.73725,0.49718037852452684,0.5027107693388111,0.5355946486885074,0.5003980160359373,0.49938766763701964,0.16391882121786813,0.44933428235162104,0.1970050039662877
0.63125,0.61925,0.65875,0.605,0.70125,0.58825,0.875,0.81125,0.78825,0.7175,0.76875,0.737,0.49711015133958353,0.5027353488535412,0.5356227395624846,0.5003857693886776,0.4993815443193755,0.16492784794987592,0.44945799379946944,0.1957545460654361
0.63125,0.6195,0.65875,0.605,0.70125,0.588,0.875,0.81125,0.7879999999999999,0.7175,0.76875,0.73675,0.49709961726184204,0.5027037466203167,0.5356438077179676,0.5003490294468987,0.49944277756165917,0.1636689662957755,0.449457210241908,0.1952780158622087
0.63125,0.61975,0.65875,0.605,0.70125,0.58775,0.875,0.81125,0.7877500000000001,0.7175,0.76875,0.7365,0.4970820604656062,0.5027142806980582,0.5356543417957091,0.5003245361523796,0.49952238076884664,0.1636689662957755,0.449457210241908,0.1952780158622087
0.63125,0.62,0.65875,0.605,0.70125,0.5875,0.875,0.81125,0.7875,0.7175,0.76875,0.73625,0.49712068541732507,0.5027599283682713,0.5356543417957091,0.5002877962106007,0.4996081072996639,0.16038240852803842,0.4485909643119537,0.19642150418111345
0.63125,0.61975,0.65875,0.60475,0.70125,0.58725,0.875,0.81125,0.7877500000000001,0.7175,0.76875,0.73575,0.49714175357280804,0.5027353488535412,0.5356648758734506,0.5002939195342305,0.49963872391182723,0.15987789516203452,0.4493341517586941,0.1977617231603525
0.63125,0.6195,0.65875,0.6045,0.70125,0.5870000000000001,0.875,0.81125,0.7879999999999999,0.7175,0.76875,0.7352500000000001,0.49719091260226833,0.5026791671055866,0.5356438077179676,0.5002877962106007,0.4996754638476204,0.15987789516203452,0.4493341517586941,0.1977617231603525
0.63125,0.61925,0.65875,0.60425,0.70125,0.58675,0.875,0.81125,0.78825,0.7175,0.76875,0.7347499999999999,0.497162821728291,0.5026651216685979,0.5356332736402262,0.50031228950512,0.4996693405239906,0.16037759876382632,0.4487155914466777,0.19891259582478138
0.63125,0.619,0.65875,0.604,0.70125,0.5865,0.875,0.81125,0.7885,0.7175,0.76875,0.73425,0.4971768671652797,0.5026475648723621,0.5356016714070017,0.5003551527705286,0.4996387239058416,0.1593605536773338,0.4456221399947358,0.20226755701624824
0.63125,0.619,0.65875,0.60375,0.7015,0.58625,0.8752500000000001,0.81125,0.78875,0.7177500000000001,0.769,0.7340000000000001,0.49718037852452684,0.5026089399206433,0.5355525123775413,0.5003857693886776,0.49960810728769256,0.1593605536773338,0.44636441175460057,0.2019844617246299
0.63125,0.61925,0.65875,0.60375,0.70175,0.58625,0.8755,0.81125,0.78875,0.718,0.76925,0.73425,0.49716984444678536,0.5026335194353735,0.5355209101443169,0.5003490294468987,0.4995713673459138,0.1593605536773338,0.44636441175460057,0.2019844617246299
0.63125,0.6195,0.65875,0.60375,0.7020000000000001,0.58625,0.87575,0.81125,0.78875,0.71825,0.7695000000000001,0.7345,0.49715931036904387,0.5026580989501036,0.5355279328628112,0.5003551527705286,0.49951013411560136,0.1593605536773338,0.44636441175460057,0.2019844617246299
0.63125,0.61975,0.65875,0.60375,0.7022499999999999,0.58625,0.8759999999999999,0.81125,0.78875,0.7184999999999999,0.7697499999999999,0.7347499999999999,0.497183889883774,0.5026580989501036,0.5355173987850697,0.5003245361523796,0.4994733941738225,0.1593605536773338,0.44636441175460057,0.2019844617246299
0.63125,0.61975,0.659,0.604,0.7025,0.58625,0.8759999999999999,0.81125,0.78825,0.71875,0.77,0.7352500000000001,0.4972014466800098,0.5026791671055866,0.5355525123775413,0.5002571795924518,0.4995285040864908,0.1593605536773338,0.44636441175460057,0.2019844617246299
0.63125,0.6195,0.65925,0.60425,0.7025,0.58625,0.87575,0.81125,0.7877500000000001,0.71875,0.77,0.7354999999999999,0.49716984444678536,0.5026897011833281,0.5355700691737771,0.5002143163270432,0.49954075073375037,0.16138502432189455,0.4466117040573704,0.2010238568258327
0.63125,0.61925,0.6595,0.6045,0.7025,0.58625,0.8755,0.81125,0.7872499999999999,0.71875,0.77,0.73575,0.497162821728291,0.5027002352610696,0.5355595350960357,0.5001592064143748,0.499583613999159,0.16138502432189455,0.4466117040573704,0.2010238568258327
0.63125,0.619,0.65975,0.60475,0.7025,0.58625,0.8752500000000001,0.81125,0.78675,0.71875,0.77,0.736,0.49718037852452684,0.5026932125425753,0.5355630464552829,0.5001408364434855,0.4996326005822118,0.16139143838124295,0.4476024449927344,0.20083439950016
0.63125,0.61875,0.66,0.605,0.7025,0.58625,0.875,0.81125,0.78625,0.71875,0.77,0.73625,0.49718037852452684,0.5027283261350469,0.5356227395624846,0.5001408364434855,0.4996326005822118,0.16139143838124295,0.4476024449927344,0.20083439950016
0.63125,0.61875,0.66,0.605,0.7025,0.58625,0.875,0.81125,0.78625,0.71875,0.77,0.73625,0.4971487762913024,0.5027142806980582,0.5355700691737771,0.5001592064143748,0.4995713673518994,0.1616428944772752,0.4473554138758184,0.20102495965505832
0.63125,0.61875,0.66,0.605,0.7025,0.58625,0.875,0.81125,0.78625,0.71875,0.77,0.73625,0.4971874012430212,0.5027142806980582,0.5355735805330243,0.5001898230325239,0.49954075073375037,0.1608853207201028,0.44698388621710533,0.2007331133104102
0.6315,0.619,0.66,0.60475,0.7025,0.58625,0.8752500000000001,0.8115000000000001,0.7865000000000001,0.71875,0.7697499999999999,0.736,0.497204958039257,0.5027072579795638,0.5355981600477545,0.500220439650673,0.4995774906755292,0.1608853207201028,0.44698388621710533,0.2007331133104102
0.6317499999999999,0.61925,0.66,0.6045,0.7025,0.58625,0.8755,0.81175,0.78675,0.71875,0.7695000000000001,0.73575,0.4972119807577513,0.5026932125425753,0.5355806032515187,0.5002143163270432,0.49964484723545705,0.1608853207201028,0.44698388621710533,0.2007331133104102
0.632,0.6195,0.66,0.60425,0.7025,0.58625,0.87575,0.812,0.787,0.71875,0.76925,0.7354999999999999,0.4971874012430212,0.5026580989501036,0.5355173987850697,0.5001836997088941,0.49966934052997625,0.16138822979097042,0.44698349290193723,0.2012124145388864
0.63225,0.6195,0.66,0.604,0.7025,0.58625,0.87575,0.8122499999999999,0.7872499999999999,0.7184999999999999,0.769,0.7354999999999999,0.497183889883774,0.5026300080761262,0.5355349555813055,0.5001836997088941,0.4996509705531012,0.16013095243200626,0.4462405681774379,0.20178902740425986
0.6325,0.6195,0.66,0.60375,0.7025,0.58625,0.87575,0.8125,0.7875,0.71825,0.76875,0.7354999999999999,0.497183889883774,0.5026616103093507,0.5355595350960357,0.5002143163270432,0.4996019839640628,0.15987629086689825,0.4464885149812296,0.20130920933832475
0.6325,0.61925,0.66,0.60375,0.7025,0.58625,0.87575,0.8125,0.7875,0.718,0.76875,0.736,0.49720846939850416,0.5026651216685979,0.5355700691737771,0.5002633029160816,0.4995285040864908,0.15987629086689825,0.4464885149812296,0.20130920933832475
0.6325,0.619,0.66,0.60375,0.7025,0.58625,0.87575,0.8125,0.7875,0.7177500000000001,0.76875,0.7365,0.49722602619474,0.5026335194353735,0.5356367849994733,0.5003061661814902,0.49939991428427927,0.15987629086689825,0.4464885149812296,0.20130920933832475
0.6325,0.61875,0.66,0.60375,0.7025,0.58625,0.87575,0.8125,0.7875,0.7175,0.76875,0.737,0.4972154921169985,0.5026124512798904,0.5356754099511921,0.500373522741418,0.49935705101288497,0.1603792030589626,0.44537432378387104,0.2007354876083139
0.6325,0.61875,0.66,0.60375,0.7025,0.58625,0.8759999999999999,0.8125,0.7875,0.7175,0.76875,0.73725,0.49722251483549285,0.5026440535131149,0.5356824326696864,0.5004102626831969,0.49933255771836577,0.1593797927341823,0.44723052555524057,0.19938518847877704
0.6325,0.61875,0.66,0.60375,0.7025,0.58625,0.87625,0.8125,0.7875,0.7175,0.76875,0.7375,0.4971452649320552,0.5025738263281716,0.5356438077179676,0.5003796460650478,0.49932643438875035,0.1618991603375195,0.4461164649508089,0.19794247614248414
0.6325,0.61875,0.66,0.60375,0.7025,0.58625,0.87625,0.8125,0.7875,0.7175,0.76875,0.7375,0.49709961726184204,0.5025422240949472,0.5355946486885074,0.5003551527705286,0.4992407078459618,0.1618991603375195,0.4461164649508089,0.19794247614248414
0.63275,0.619,0.66,0.604,0.7025,0.58675,0.87625,0.8122499999999999,0.7877500000000001,0.7175,0.769,0.73725,0.4970961059025949,0.502580849046666,0.535587625970013,0.5004163860068266,0.49884881513365437,0.1618991603375195,0.4461164649508089,0.19794247614248414
0.633,0.61925,0.66,0.60425,0.7025,0.58725,0.87625,0.812,0.7879999999999999,0.7175,0.76925,0.737,0.49716984444678536,0.502668633027845,0.5356262509217318,0.5005266058381488,0.4985304023049046,0.1618991603375195,0.4461164649508089,0.19794247614248414
0.6335000000000001,0.62,0.6605,0.605,0.7027500000000001,0.58875,0.87575,0.81175,0.789,0.718,0.7697499999999999,0.736,0.4972154921169985,0.5027037466203167,0.5356297622809789,0.500581715750817,0.49846916908057787,0.1618991603375195,0.4461164649508089,0.19794247614248414
0.634,0.62075,0.6609999999999999,0.60575,0.703,0.5902499999999999,0.8752500000000001,0.8115000000000001,0.79,0.7184999999999999,0.7702500000000001,0.735,0.4973348783314021,0.5027809965237543,0.5356543417957091,0.5006307023398554,0.4984201824915394,0.16140105790966724,0.44685952026823506,0.197167650652091
0.6345000000000001,0.6214999999999999,0.6615000000000001,0.6065,0.70325,0.59175,0.8747499999999999,0.81125,0.7909999999999999,0.7190000000000001,0.77075,0.7340000000000001,0.49738754872010954,0.5027915306014958,0.535650830436462,0.5007164288706727,0.49840181253860694,0.16140105790966724,0.44685952026823506,0.197167650652091
