C0,C1,C2,C3,C4,C5,C6,C7,C8,C9,C10,C11,Ax,Ay,Az,Gr,Gp,Fx_norm,Fy_norm,Fz_norm
0.6575,0.6558333333333333,0.67875,0.6266666666666666,0.6908333333333333,0.6075,0.8975,0.82375,0.8320833333333333,0.77125,0.8075,0.7854166666666668,0.5127716064453125,0.5050862630208334,0.5296986897786459,0.501540882588666,0.500218564907709,0.2110663071527228,0.20515587723350684,0.0033351224506124955
0.6575,0.655625,0.67875,0.626875,0.690625,0.6075,0.8975,0.82375,0.831875,0.77125,0.8075,0.785625,0.512725830078125,0.5051078796386719,0.5295906066894531,0.5015408825993485,0.49997541143987084,0.2134303632580692,0.20533197193527378,0.002689041593314671
0.6575,0.6555,0.67875,0.627,0.6905,0.6075,0.8975,0.82375,0.83175,0.77125,0.8075,0.7857500000000001,0.512579345703125,0.5050628662109375,0.529449462890625,0.5015998951244299,0.4997508359923927,0.2134303632580692,0.20533197193527378,0.002689041593314671
0.6575,0.6552500000000001,0.67875,0.62725,0.69025,0.6075,0.8975,0.8240000000000001,0.8315,0.77125,0.8075,0.78625,0.51202392578125,0.50518798828125,0.5293670654296875,0.5012392630395291,0.499626253988589,0.2110663071527228,0.20462851843776406,0.0019191005157543582
0.6575,0.655,0.6785,0.6275,0.69,0.6075,0.89725,0.8242499999999999,0.831,0.77125,0.8075,0.7865000000000001,0.511346435546875,0.505322265625,0.5295135498046875,0.5010097698864346,0.5000393416705686,0.2110663071527228,0.20462851843776406,0.0019191005157543582
0.6575,0.655,0.67825,0.6275,0.69,0.6075,0.897,0.8245,0.83075,0.77125,0.8075,0.7865000000000001,0.510760498046875,0.505462646484375,0.529766845703125,0.5007606058852369,0.5006032391452768,0.2110663071527228,0.20462851843776406,0.0019191005157543582
0.6575,0.655,0.6779999999999999,0.6275,0.69,0.6075,0.8967499999999999,0.82475,0.8305,0.77125,0.8075,0.7865000000000001,0.510107421875,0.5055755615234375,0.5300567626953125,0.5005376696729642,0.5010425546161815,0.2110663071527228,0.20462851843776406,0.0019191005157543582
0.6575,0.655,0.6777500000000001,0.6275,0.69,0.6075,0.8965000000000001,0.825,0.83025,0.77125,0.8075,0.7865000000000001,0.509454345703125,0.50572509765625,0.53037109375,0.5002950626318167,0.5015474395465798,0.2137659314785455,0.20515606273188522,0.0025609330746972207
0.6575,0.655,0.6775,0.6275,0.69,0.6075,0.89625,0.825,0.83,0.77125,0.8075,0.78625,0.5090606689453125,0.505670166015625,0.530499267578125,0.5005376696793737,0.5018162743766523,0.21241719455921376,0.20480442764115261,0.0023089303040547573
0.6575,0.655,0.6775,0.6275,0.69,0.6075,0.89625,0.825,0.83,0.77125,0.8075,0.7859999999999999,0.5086639404296875,0.50545654296875,0.5304656982421875,0.50057045441553,0.5021310078437533,0.21377023664484696,0.2055071391451488,0.0023077148839646495
0.6575,0.655,0.6775,0.6275,0.69,0.6075,0.89625,0.825,0.83,0.77125,0.8075,0.7857500000000001,0.508270263671875,0.50526123046875,0.53038330078125,0.5004655432598297,0.5025768802298416,0.21207516649329394,0.20480387114601745,0.0035864526888051023
0.6575,0.655,0.6775,0.6275,0.69,0.6075,0.89625,0.825,0.83,0.77125,0.8075,0.7855,0.5082061767578125,0.505108642578125,0.5303131103515625,0.5002753917901229,0.5032063471896817,0.2130840258338651,0.20497940935264927,0.002950235370678525
0.6575,0.655,0.6775,0.62725,0.69,0.6072500000000001,0.8959999999999999,0.825,0.82975,0.77125,0.8072499999999999,0.78525,0.508221435546875,0.504949951171875,0.5304412841796875,0.5001049111557003,0.5036128779308395,0.2151275880887643,0.2053317864368954,0.002177344063419485
0.6575,0.655,0.6775,0.627,0.69025,0.6072500000000001,0.89575,0.82475,0.8295,0.7709999999999999,0.807,0.785,0.507952880859375,0.5043365478515625,0.530572509765625,0.4995213428585268,0.5033243722526636,0.2151275880887643,0.2053317864368954,0.002177344063419485
0.6575,0.655,0.6775,0.6267499999999999,0.6905,0.6072500000000001,0.8955,0.8245,0.8292499999999999,0.77075,0.80675,0.785,0.507684326171875,0.50377197265625,0.5307708740234375,0.4987935217222653,0.5028588289928339,0.2151275880887643,0.2053317864368954,0.002177344063419485
0.6575,0.655,0.6775,0.6265,0.69075,0.6072500000000001,0.8952500000000001,0.8242499999999999,0.8290000000000001,0.7705,0.8065000000000001,0.785,0.5072998046875,0.5031768798828125,0.5311279296875,0.49769195463227855,0.5026490066814332,0.2151275880887643,0.2053317864368954,0.002177344063419485
0.6575,0.655,0.6775,0.62625,0.691,0.6072500000000001,0.895,0.8240000000000001,0.82875,0.7702500000000001,0.80625,0.785,0.5065399169921875,0.502569580078125,0.531439208984375,0.4965182610458335,0.5025965510523068,0.21173529310651615,0.20550732464352717,0.003973085111988469
0.6575,0.655,0.6775,0.62625,0.69125,0.6075,0.895,0.82375,0.82875,0.77,0.80625,0.785,0.505816650390625,0.502001953125,0.531549072265625,0.4952068716444461,0.5029243984523275,0.21173529310651615,0.20550732464352717,0.003973085111988469
0.6575,0.655,0.6775,0.62625,0.69125,0.6075,0.895,0.82375,0.82875,0.77,0.80625,0.785,0.5054412841796875,0.5019134521484375,0.531634521484375,0.49419054484282776,0.5039013836346534,0.2137659314785455,0.20515643372864198,0.002564243879022671
0.6575,0.655,0.6775,0.62625,0.69125,0.6075,0.895,0.82375,0.82875,0.77,0.80625,0.785,0.5050689697265625,0.5018310546875,0.5316497802734375,0.49342338204881675,0.5047996854502041,0.212421503917498,0.20533160093851702,0.0019190916026736945
0.6575,0.655,0.6775,0.6265,0.691,0.6072500000000001,0.895,0.82375,0.82875,0.7702500000000001,0.80625,0.785,0.5047698974609375,0.5017547607421875,0.5316253662109375,0.49319388886367466,0.505350469043269,0.212421503917498,0.20533160093851702,0.0019190916026736945
0.6575,0.655,0.6775,0.6267499999999999,0.69075,0.607,0.895,0.82375,0.82875,0.7705,0.80625,0.785,0.5045257568359375,0.5015533447265625,0.53173828125,0.4931676611003877,0.5055799622284111,0.2141101142236075,0.20550769564028395,0.0032093791394903945
0.6575,0.655,0.6775,0.627,0.6905,0.60675,0.895,0.82375,0.82875,0.77075,0.80625,0.785,0.5035400390625,0.5010406494140625,0.531927490234375,0.4915415382383088,0.5063405680816003,0.2147855600228444,0.20515624823026357,0.0028175641650428156
0.6575,0.655,0.6775,0.62725,0.6905,0.60675,0.8952500000000001,0.82375,0.82875,0.7705,0.80625,0.785,0.5024932861328125,0.5008453369140625,0.5319091796875,0.48911546787811017,0.5081175008389602,0.2147855600228444,0.20515624823026357,0.0028175641650428156
0.6575,0.655,0.6775,0.6275,0.6905,0.60675,0.8955,0.82375,0.82875,0.7702500000000001,0.80625,0.785,0.5014007568359375,0.500860595703125,0.5315216064453125,0.48718116833592356,0.5110156715536389,0.2147855600228444,0.20515624823026357,0.0028175641650428156
0.6575,0.6552500000000001,0.6777500000000001,0.6275,0.69075,0.607,0.89575,0.8242499999999999,0.8290000000000001,0.7697499999999999,0.8059999999999999,0.785,0.5003570556640625,0.50067138671875,0.5310791015625,0.4853714508231787,0.5145760940604567,0.2147855600228444,0.20515624823026357,0.0028175641650428156
0.6575,0.6555,0.6779999999999999,0.6275,0.691,0.6072500000000001,0.8959999999999999,0.82475,0.8292499999999999,0.76925,0.8057500000000001,0.785,0.499462890625,0.5005035400390625,0.530364990234375,0.4833453541094876,0.5187135278723501,0.2147855600228444,0.20515624823026357,0.0028175641650428156
0.6575,0.65575,0.67825,0.6275,0.69125,0.6075,0.89625,0.82525,0.8295,0.76875,0.8055,0.785,0.4993133544921875,0.500634765625,0.5296295166015625,0.4829978357844493,0.5221755961130132,0.2147855600228444,0.20515624823026357,0.0028175641650428156
0.6575,0.6559999999999999,0.6785,0.6275,0.69125,0.6075,0.89625,0.82575,0.82975,0.76875,0.80525,0.785,0.49942626953125,0.500433349609375,0.52911376953125,0.48280112725213986,0.5250409819697547,0.21377023664484696,0.20445260705204166,0.0015426938269290857
0.6575,0.65625,0.67875,0.6275,0.69125,0.6075,0.89625,0.82625,0.83,0.76875,0.805,0.785,0.499920654296875,0.500494384765625,0.5288330078125,0.48137826960681135,0.5278866972604116,0.21377023664484696,0.20445260705204166,0.0015426938269290857
0.6577500000000001,0.6559999999999999,0.6785,0.6275,0.691,0.6075,0.8959999999999999,0.82625,0.82975,0.7685,0.805,0.78475,0.5009033203125,0.5011962890625,0.5285430908203125,0.48015212049379236,0.5325618004247932,0.21377023664484696,0.20445260705204166,0.0015426938269290857
0.6579999999999999,0.65575,0.67825,0.6275,0.69075,0.6075,0.89575,0.82625,0.8295,0.76825,0.805,0.7845,0.5020111083984375,0.502020263671875,0.52852783203125,0.47920791998993706,0.5369549551851157,0.21377023664484696,0.20445260705204166,0.0015426938269290857
0.65825,0.6555,0.6779999999999999,0.6275,0.6905,0.6075,0.8955,0.82625,0.8292499999999999,0.768,0.805,0.78425,0.503216552734375,0.5028411865234375,0.5286285400390625,0.47849976956076945,0.5416431727439025,0.21139972488603978,0.20462795976029505,0.002561975094854475
0.6585,0.6552500000000001,0.6777500000000001,0.6275,0.69025,0.6075,0.8952500000000001,0.82625,0.8290000000000001,0.76775,0.805,0.784,0.5045654296875,0.503741455078125,0.5288055419921875,0.478768604390842,0.5460232135200291,0.21275061229253084,0.20462851843776406,0.002302008081501569
0.65875,0.655,0.6775,0.6275,0.69,0.6075,0.895,0.82625,0.82875,0.7675,0.805,0.78375,0.505780029296875,0.5041961669921875,0.5290313720703125,0.4800603230146308,0.5494590535871958,0.21275061229253084,0.20462851843776406,0.002302008081501569
0.65875,0.6552500000000001,0.6775,0.62775,0.69,0.6075,0.895,0.82575,0.82875,0.7675,0.805,0.78375,0.5064971923828125,0.5042205810546875,0.5292510986328125,0.4810045233133814,0.5503639123435683,0.21275061229253084,0.20462851843776406,0.002302008081501569
0.65875,0.6555,0.6775,0.628,0.69,0.6075,0.895,0.82525,0.82875,0.7675,0.805,0.78375,0.50716552734375,0.50411376953125,0.5293731689453125,0.4819815085726216,0.5514326948768653,0.21275061229253084,0.20462851843776406,0.002302008081501569
0.65875,0.65575,0.6775,0.62825,0.69,0.6075,0.895,0.82475,0.82875,0.7675,0.805,0.78375,0.5086822509765625,0.5039794921875,0.529156494140625,0.48327978418850837,0.551065505780638,0.2134389777826548,0.20585914523263818,0.0021744051776416084
0.65875,0.6559999999999999,0.6777500000000001,0.6285000000000001,0.69025,0.6075,0.8955,0.825,0.8284999999999999,0.7675,0.805,0.78375,0.5100067138671875,0.503936767578125,0.5286590576171875,0.4844600347670513,0.5500229512157326,0.2134389777826548,0.20585914523263818,0.0021744051776416084
0.65875,0.65625,0.6779999999999999,0.62875,0.6905,0.6075,0.8959999999999999,0.82525,0.82825,0.7675,0.805,0.78375,0.5111785888671875,0.5038970947265625,0.528228759765625,0.4853648937285284,0.5487771313315246,0.21241504407205447,0.20427651235027472,0.0019170983137259193
0.65875,0.65625,0.67825,0.62875,0.69075,0.6075,0.8965000000000001,0.826,0.828,0.7675,0.805,0.78375,0.512237548828125,0.503936767578125,0.5277587890625,0.48649268878049734,0.5469543002447933,0.21241504407205447,0.20427651235027472,0.0019170983137259193
0.65875,0.65625,0.6785,0.62875,0.691,0.6075,0.897,0.82675,0.8277500000000001,0.7675,0.805,0.78375,0.5130096435546875,0.50421142578125,0.5273590087890625,0.48781063516757317,0.5443446350288239,0.2124193492383559,0.20410115964202127,0.0019189498036631832
0.65875,0.65625,0.67875,0.62875,0.69125,0.6075,0.8975,0.8275,0.8275,0.7675,0.805,0.78375,0.51282958984375,0.50435791015625,0.52723388671875,0.4890630121464315,0.542351322557756,0.21377023664484696,0.20550751014190557,0.002822621122897719
0.65875,0.65625,0.67875,0.62875,0.69125,0.6075,0.8975,0.8275,0.8275,0.7675,0.805,0.78375,0.51246337890625,0.5042205810546875,0.52724609375,0.4903678445493115,0.5401481879803921,0.21377454600313112,0.20480405664439585,0.0012787345637202095
0.65875,0.65625,0.67875,0.62875,0.69125,0.6075,0.8975,0.8275,0.8275,0.7675,0.805,0.78375,0.51182861328125,0.50394287109375,0.5272674560546875,0.49175791723415035,0.5373680422005049,0.212421503917498,0.20497996584778438,0.0024315929303884653
0.65875,0.65625,0.67875,0.62875,0.69125,0.6075,0.8975,0.8275,0.8275,0.7675,0.805,0.78375,0.5109375,0.503497314453125,0.5275634765625,0.49292505382849744,0.5346600227183809,0.21343251793721127,0.20550769564028395,0.002438909759330907
0.65875,0.6559999999999999,0.6785,0.6285000000000001,0.69125,0.6075,0.89725,0.8272499999999999,0.8275,0.7675,0.805,0.7835,0.5085205078125,0.502117919921875,0.5283935546875,0.49457740455641563,0.5303193234846323,0.21343251793721127,0.20550769564028395,0.002438909759330907
0.65875,0.65575,0.67825,0.62825,0.69125,0.6075,0.897,0.8270000000000001,0.8275,0.7675,0.805,0.78325,0.505633544921875,0.5007781982421875,0.529534912109375,0.4960199329793427,0.5259327259215124,0.21343251793721127,0.20550769564028395,0.002438909759330907
0.65875,0.6555,0.6779999999999999,0.62775,0.691,0.6075,0.8967499999999999,0.82675,0.8277500000000001,0.7675,0.805,0.78325,0.502569580078125,0.4990142822265625,0.53125,0.4964067928467591,0.5217362798986042,0.21343251793721127,0.20550769564028395,0.002438909759330907
0.65875,0.6552500000000001,0.6777500000000001,0.62725,0.69075,0.6075,0.8965000000000001,0.8265,0.828,0.7675,0.805,0.78325,0.49949951171875,0.4975738525390625,0.533099365234375,0.49586912318661397,0.5168251264544302,0.21343251793721127,0.20550769564028395,0.002438909759330907
0.65875,0.655,0.6775,0.6267499999999999,0.6905,0.6075,0.89625,0.82625,0.82825,0.7675,0.805,0.78325,0.4965789794921875,0.4962188720703125,0.534796142578125,0.4954953772008411,0.5119467577656412,0.21139541552775562,0.20498052234291955,0.0017981435289470913
0.65875,0.655,0.6775,0.6265,0.69025,0.6075,0.89625,0.82625,0.8284999999999999,0.76725,0.805,0.7835,0.4949249267578125,0.4956085205078125,0.5356964111328125,0.494380696133068,0.5091534983092153,0.21377239132398904,0.20515587723350684,0.002563448994283745
0.65875,0.655,0.6775,0.62625,0.69,0.6075,0.89625,0.82625,0.82875,0.767,0.805,0.78375,0.493408203125,0.4951385498046875,0.5362579345703125,0.49274145928038376,0.5071601863509091,0.21377239132398904,0.20515587723350684,0.002563448994283745
0.65875,0.655,0.6775,0.62625,0.69,0.6075,0.89625,0.82625,0.82875,0.7667499999999999,0.805,0.78375,0.4920654296875,0.495294189453125,0.5363494873046875,0.4913317156192511,0.5062946693420195,0.21377239132398904,0.20585914523263818,0.00205040802004896
0.65875,0.655,0.6775,0.62625,0.69,0.6075,0.89625,0.82625,0.82875,0.7665000000000001,0.805,0.78375,0.490997314453125,0.4952667236328125,0.536297607421875,0.4907612612037211,0.5067208709569188,0.21377239132398904,0.20585914523263818,0.00205040802004896
0.6585,0.6547499999999999,0.6775,0.6265,0.69,0.6072500000000001,0.8967499999999999,0.82575,0.82875,0.76625,0.80475,0.78375,0.4927001953125,0.496673583984375,0.5359130859375,0.488682708963456,0.5096911678668081,0.21377239132398904,0.20585914523263818,0.00205040802004896
0.65825,0.6545000000000001,0.6775,0.6267499999999999,0.69,0.607,0.89725,0.82525,0.82875,0.76625,0.8045,0.78375,0.494781494140625,0.49814453125,0.535675048828125,0.4864992455674906,0.5126417939029561,0.21377239132398904,0.20585914523263818,0.00205040802004896
0.6579999999999999,0.65425,0.6775,0.627,0.69,0.60675,0.89775,0.82475,0.82875,0.76625,0.80425,0.78375,0.4972381591796875,0.4993499755859375,0.535198974609375,0.48476165455761344,0.5156907744103634,0.21377239132398904,0.20585914523263818,0.00205040802004896
0.6577500000000001,0.654,0.6775,0.62725,0.69,0.6065,0.89825,0.8242499999999999,0.82875,0.76625,0.804,0.78375,0.5001617431640625,0.500323486328125,0.5355499267578125,0.4837190999927081,0.518431578237663,0.21377454600313112,0.2055071391451488,0.0024357213072945267
0.6575,0.65375,0.6775,0.6275,0.69,0.60625,0.89875,0.82375,0.82875,0.76625,0.80375,0.78375,0.5034393310546875,0.501141357421875,0.5357086181640625,0.4824798368954933,0.5209822307298557,0.21343682310351267,0.20498033684454117,0.0012776730968415203
0.6575,0.65375,0.6775,0.6275,0.69,0.60625,0.89875,0.82375,0.82875,0.76625,0.80375,0.78375,0.5042144775390625,0.5005126953125,0.5362335205078125,0.4818765977245783,0.5208707628897146,0.21444999180236807,0.20550806881937458,0.003467361776976183
0.6575,0.65375,0.6775,0.6275,0.69,0.60625,0.89875,0.82375,0.82875,0.76625,0.80375,0.78375,0.50501708984375,0.49991455078125,0.5361328125,0.4806504486115593,0.5205429157460747,0.21444999180236807,0.20550806881937458,0.003467361776976183
0.6575,0.654,0.677,0.62725,0.69025,0.60625,0.89875,0.82375,0.8284999999999999,0.76575,0.80375,0.78375,0.5057830810546875,0.499560546875,0.5362457275390625,0.4792210341792376,0.5198872210485858,0.21444999180236807,0.20550806881937458,0.003467361776976183
0.6575,0.65425,0.6765000000000001,0.627,0.6905,0.60625,0.89875,0.82375,0.82825,0.7652500000000001,0.80375,0.78375,0.50706787109375,0.5000946044921875,0.534954833984375,0.479502982993506,0.5161432043013113,0.21444999180236807,0.20550806881937458,0.003467361776976183
0.6575,0.6545000000000001,0.6759999999999999,0.6267499999999999,0.69075,0.60625,0.89875,0.82375,0.828,0.7647499999999999,0.80375,0.78375,0.5078948974609375,0.5009735107421875,0.534033203125,0.4808406003568756,0.5119008594106318,0.21444999180236807,0.20550806881937458,0.003467361776976183
0.6575,0.6547499999999999,0.6755,0.6265,0.691,0.60625,0.89875,0.82375,0.8277500000000001,0.76425,0.80375,0.78375,0.5087890625,0.5021240234375,0.5334808349609375,0.4836600876791409,0.5074814768870223,0.21444999180236807,0.20550806881937458,0.003467361776976183
0.6577500000000001,0.6547499999999999,0.67475,0.626,0.691,0.60625,0.89875,0.825,0.82825,0.76375,0.8029999999999999,0.7835,0.50965576171875,0.5032440185546875,0.5335540771484375,0.4871024849435102,0.5032784736669114,0.21411441938990894,0.20515587723350684,0.0032052621065051723
0.6579999999999999,0.6545000000000001,0.6745,0.62575,0.69075,0.60625,0.89875,0.82625,0.8290000000000001,0.76375,0.8022499999999999,0.78325,0.510150146484375,0.503997802734375,0.534051513671875,0.4916726771316581,0.4987279522243145,0.21411441938990894,0.20515587723350684,0.0032052621065051723
0.65825,0.65425,0.67425,0.6255,0.6905,0.60625,0.89875,0.8275,0.82975,0.76375,0.8015000000000001,0.7829999999999999,0.5096527099609375,0.503582763671875,0.535052490234375,0.4952003146267101,0.49670841250272135,0.21411441938990894,0.20515587723350684,0.0032052621065051723
0.6585,0.654,0.674,0.62525,0.69025,0.60625,0.89875,0.82875,0.8305,0.76375,0.8007500000000001,0.7827500000000001,0.509002685546875,0.50255126953125,0.5360626220703125,0.49806570053472765,0.49552160506027093,0.21411441938990894,0.20515587723350684,0.0032052621065051723
0.65875,0.65375,0.674,0.625,0.69,0.60625,0.8985,0.82875,0.83075,0.764,0.8,0.7825,0.5100830078125,0.501885986328125,0.5382659912109375,0.499396760829085,0.49296439557598026,0.21411441938990894,0.20515587723350684,0.0032052621065051723
0.65875,0.65375,0.67425,0.625,0.69,0.60625,0.89825,0.8275,0.83025,0.76425,0.8,0.7825,0.510577392578125,0.50142822265625,0.540155029296875,0.500839289226374,0.488735164797687,0.21276137730427577,0.20515606273188522,0.0016637691146251167
0.65875,0.65375,0.6745,0.625,0.69,0.60625,0.898,0.82625,0.82975,0.7645000000000001,0.8,0.7825,0.5110107421875,0.501397705078125,0.541455078125,0.501272047756457,0.48413874482061414,0.21276137730427577,0.20515606273188522,0.0016637691146251167
0.65875,0.65375,0.67475,0.625,0.69,0.60625,0.89775,0.825,0.8292499999999999,0.7647499999999999,0.8,0.7825,0.511322021484375,0.501934814453125,0.54267578125,0.5014818700678576,0.47973903327329837,0.21106846183186484,0.205858588737503,0.0026919545501306245
0.65875,0.65375,0.675,0.625,0.69,0.60625,0.8975,0.82375,0.82875,0.765,0.8,0.7825,0.5119598388671875,0.5027862548828125,0.5434234619140625,0.5019605272606069,0.475254081238919,0.21105984730727922,0.20550751014190557,0.002435193004695364
0.65875,0.65375,0.675,0.625,0.69,0.60625,0.8975,0.82375,0.82875,0.765,0.8,0.7825,0.5107421875,0.5026214599609375,0.541912841796875,0.503881712895512,0.47280833979987424,0.21105984730727922,0.20550751014190557,0.002435193004695364
0.65875,0.65375,0.675,0.625,0.69,0.60625,0.8975,0.82375,0.82875,0.765,0.8,0.7825,0.50989990234375,0.501904296875,0.5395904541015625,0.506084847081895,0.47208051839441284,0.21105984730727922,0.20550751014190557,0.002435193004695364
0.65875,0.65375,0.675,0.625,0.69,0.60625,0.8975,0.82375,0.82875,0.765,0.8,0.7825,0.509283447265625,0.5010406494140625,0.5365203857421875,0.50856337307122,0.4725460617567949,0.2141122689027496,0.20410134514039965,0.0021797173737154295
0.65875,0.6535,0.675,0.625,0.69,0.606,0.89725,0.8240000000000001,0.82875,0.765,0.79975,0.7827500000000001,0.51019287109375,0.499774169921875,0.5344207763671875,0.5113500754842719,0.47945052705672264,0.2141122689027496,0.20410134514039965,0.0021797173737154295
0.65875,0.65325,0.675,0.625,0.69,0.60575,0.897,0.8242499999999999,0.82875,0.765,0.7995,0.7829999999999999,0.5114410400390625,0.498779296875,0.5332611083984375,0.5117500492333318,0.4852862102335627,0.2141122689027496,0.20410134514039965,0.0021797173737154295
0.65875,0.653,0.675,0.625,0.69,0.6054999999999999,0.8967499999999999,0.8245,0.82875,0.765,0.79925,0.78325,0.5130126953125,0.4987152099609375,0.5338226318359375,0.5096846107721578,0.4889449870065353,0.2141122689027496,0.20410134514039965,0.0021797173737154295
0.65875,0.65275,0.675,0.625,0.69,0.60525,0.8965000000000001,0.82475,0.82875,0.765,0.799,0.7835,0.51463623046875,0.49940185546875,0.53624267578125,0.5064454789296435,0.4894957706508763,0.212421503917498,0.2053317864368954,0.0012787062039181108
0.65875,0.6525,0.675,0.625,0.69,0.605,0.89625,0.825,0.82875,0.765,0.79875,0.78375,0.5155120849609375,0.5005859375,0.5396270751953125,0.5028391579909021,0.48668284011560425,0.21377454600313112,0.20515587723350684,0.002694626043488681
0.65875,0.6525,0.675,0.625,0.68975,0.60525,0.8965000000000001,0.825,0.8290000000000001,0.76575,0.79975,0.7845,0.5141876220703125,0.502044677734375,0.541851806640625,0.49855091469393686,0.47644088860445516,0.21106200198642133,0.2039246917611637,0.0020492039438796917
0.65875,0.6525,0.675,0.625,0.6895,0.6054999999999999,0.8967499999999999,0.825,0.8292499999999999,0.7665000000000001,0.8007500000000001,0.78525,0.511639404296875,0.5031707763671875,0.543096923828125,0.4965313749210675,0.4665923541579251,0.21106200198642133,0.2039246917611637,0.0020492039438796917
0.65875,0.6525,0.675,0.625,0.6892499999999999,0.60575,0.897,0.825,0.8295,0.76725,0.80175,0.7859999999999999,0.5072021484375,0.5036773681640625,0.5422821044921875,0.49605927472041605,0.4665071138759662,0.21106200198642133,0.2039246917611637,0.0020492039438796917
0.659,0.6525,0.675,0.625,0.6890000000000001,0.606,0.8975,0.82475,0.83125,0.7685,0.80325,0.7875,0.503118896484375,0.5033966064453125,0.5436676025390625,0.4982230673451924,0.4740869448496766,0.21106200198642133,0.2039246917611637,0.0020492039438796917
0.65925,0.6525,0.675,0.625,0.68875,0.60625,0.898,0.8245,0.833,0.7697499999999999,0.80475,0.789,0.5006439208984375,0.5027740478515625,0.54552001953125,0.5008524032297984,0.4820011802090961,0.21106200198642133,0.2039246917611637,0.0020492039438796917
0.6595,0.6525,0.675,0.625,0.68875,0.60625,0.89825,0.8242499999999999,0.8345,0.7702500000000001,0.80525,0.78975,0.4989349365234375,0.502410888671875,0.5471527099609375,0.5033702709666062,0.48558783047920095,0.21241719455921376,0.20462851843776406,0.0032063527434660287
0.65975,0.6525,0.675,0.625,0.68875,0.60625,0.8985,0.8240000000000001,0.836,0.77075,0.8057500000000001,0.7905,0.4964599609375,0.5020904541015625,0.548297119140625,0.5060192776736776,0.48379122654044254,0.21377239132398904,0.20480424214277423,0.00333313483362514
0.66,0.6525,0.675,0.625,0.68875,0.60625,0.89875,0.82375,0.8375,0.77125,0.80625,0.79125,0.494354248046875,0.5014190673828125,0.5489410400390625,0.5096780541902693,0.4744213492353857,0.21207947585157813,0.20497959485102765,0.0020498740454893715
0.66,0.6525,0.675,0.625,0.68875,0.60625,0.89875,0.82375,0.8375,0.77125,0.80625,0.79125,0.491558837890625,0.5008758544921875,0.54580078125,0.5120123272764111,0.462638515246669,0.21207947585157813,0.20497959485102765,0.0020498740454893715
0.65975,0.65225,0.675,0.625,0.68875,0.60625,0.89925,0.82375,0.8375,0.7717499999999999,0.807,0.7915000000000001,0.488006591796875,0.500048828125,0.54061279296875,0.516871025194011,0.46377942403286243,0.21207947585157813,0.20497959485102765,0.0020498740454893715
0.6595,0.652,0.675,0.625,0.68875,0.60625,0.8997499999999999,0.82375,0.8375,0.77225,0.8077500000000001,0.79175,0.4856109619140625,0.49747314453125,0.53665771484375,0.5274014827166311,0.4818700415528992,0.21207947585157813,0.20497959485102765,0.0020498740454893715
0.65925,0.6517499999999999,0.675,0.625,0.68875,0.60625,0.9002500000000001,0.82375,0.8375,0.77275,0.8085,0.792,0.4850555419921875,0.4948028564453125,0.53387451171875,0.5376762187780604,0.5083076531995906,0.21173959827281758,0.20568305053087121,0.002305321316667201
0.659,0.6515000000000001,0.675,0.625,0.68875,0.60625,0.90075,0.82375,0.8375,0.77325,0.80925,0.7922499999999999,0.48614501953125,0.4923431396484375,0.5323150634765625,0.5462002500505214,0.5358337177405588,0.21173959827281758,0.20568305053087121,0.002305321316667201
0.6585,0.65125,0.675,0.625,0.68825,0.60625,0.9015000000000001,0.82375,0.8372499999999999,0.774,0.81,0.7927500000000001,0.4880340576171875,0.490155029296875,0.5316650390625,0.5514064660880549,0.560907484055489,0.2134389777826548,0.20498033684454117,0.0021743938337207627
0.65825,0.65125,0.675,0.625,0.6877500000000001,0.60625,0.9017499999999999,0.82375,0.8370000000000001,0.77425,0.81,0.7929999999999999,0.490264892578125,0.4885986328125,0.5322540283203125,0.5466723501998967,0.573470594976241,0.21376808615768764,0.20445223605528487,0.0015337904696290242
0.6579999999999999,0.65125,0.675,0.625,0.6872499999999999,0.60625,0.902,0.82375,0.83675,0.7745000000000001,0.81,0.79325,0.4918060302734375,0.4894805908203125,0.53167724609375,0.5309356766397432,0.5721985471236413,0.21241504407205447,0.20480405664439585,0.0028194156549800798
0.6577500000000001,0.65125,0.675,0.625,0.68675,0.60625,0.90225,0.82375,0.8365,0.7747499999999999,0.81,0.7935,0.491986083984375,0.4941619873046875,0.5307708740234375,0.5040325224510884,0.5614058115579418,0.21241504407205447,0.20480405664439585,0.0028194156549800798
0.6575,0.65125,0.67475,0.62475,0.6865000000000001,0.606,0.9025,0.82375,0.83625,0.77575,0.81125,0.79375,0.4894195556640625,0.501019287109375,0.5297515869140625,0.47990951404232085,0.5462330352161157,0.21241504407205447,0.20480405664439585,0.0028194156549800798
0.6575,0.65125,0.6745,0.6245,0.68675,0.60575,0.9025,0.82375,0.83625,0.7765000000000001,0.8125,0.79375,0.485833740234375,0.5080169677734375,0.528350830078125,0.46105173357444457,0.531211068872123,0.21241504407205447,0.20480405664439585,0.0028194156549800798
0.6575,0.65125,0.67425,0.62425,0.687,0.6054999999999999,0.9025,0.82375,0.83625,0.77725,0.81375,0.79375,0.48138427734375,0.514642333984375,0.5264495849609375,0.45189167817057896,0.5186676288251124,0.21241504407205447,0.20480405664439585,0.0028194156549800798
0.6575,0.65125,0.674,0.624,0.6872499999999999,0.60525,0.9025,0.82375,0.83625,0.778,0.815,0.79375,0.47647705078125,0.5201263427734375,0.52451171875,0.45080322486609287,0.5089567897769058,0.2127549174588322,0.20550751014190557,0.002304796255188276
0.6575,0.65125,0.67375,0.62375,0.6875,0.605,0.9025,0.82375,0.83625,0.77875,0.81625,0.79375,0.4724700927734375,0.5217193603515625,0.5222991943359375,0.4629007924244629,0.5071667432404547,0.2134389777826548,0.20533215743365216,0.0011503456882019807
0.6575,0.65125,0.67375,0.62375,0.6875,0.605,0.9025,0.82375,0.83625,0.77875,0.81625,0.79375,0.4707794189453125,0.5210113525390625,0.5204071044921875,0.4746377276735988,0.509363320620616,0.2134389777826548,0.20533215743365216,0.0011503456882019807
0.657,0.65075,0.6735,0.62375,0.6872499999999999,0.605,0.90275,0.82375,0.8372499999999999,0.7795000000000001,0.8165,0.79475,0.472161865234375,0.5196319580078125,0.5173858642578125,0.4857255258326578,0.5104452169330042,0.2134389777826548,0.20533215743365216,0.0011503456882019807
0.6565000000000001,0.6502500000000001,0.67325,0.62375,0.687,0.605,0.903,0.82375,0.83825,0.7802500000000001,0.81675,0.7957500000000001,0.474896240234375,0.51689453125,0.5145416259765625,0.4996590386670597,0.5103075210219189,0.2134389777826548,0.20533215743365216,0.0011503456882019807
0.6559999999999999,0.6497499999999999,0.6729999999999999,0.62375,0.68675,0.605,0.90325,0.82375,0.8392499999999999,0.7809999999999999,0.8170000000000001,0.79675,0.47840576171875,0.5123809814453125,0.5117523193359375,0.5138876138897164,0.5098550916437327,0.2134389777826548,0.20533215743365216,0.0011503456882019807
0.6555,0.64925,0.6727500000000001,0.62375,0.6865000000000001,0.605,0.9035,0.82375,0.84025,0.78175,0.8172499999999999,0.7977500000000001,0.4823883056640625,0.5065582275390625,0.5091217041015625,0.5285423911374818,0.5096583833165279,0.21308618051300718,0.20498052234291955,0.0020477478706117432
0.655,0.64875,0.6725,0.62375,0.68625,0.605,0.90375,0.82375,0.84125,0.7825,0.8175,0.79875,0.48681640625,0.4991912841796875,0.5066925048828125,0.5425873724273389,0.5104780017909414,0.2110533874618357,0.2044531635471768,0.0024365161920334587
0.655,0.6485,0.6722499999999999,0.6235,0.6859999999999999,0.60525,0.9035,0.8242499999999999,0.841,0.7827500000000001,0.8177500000000001,0.7985,0.489715576171875,0.491241455078125,0.506097412109375,0.5517867695786873,0.5153301427164434,0.21038225102088295,0.20586007272453008,0.002819040495312267
0.655,0.64825,0.672,0.6232500000000001,0.6857500000000001,0.6054999999999999,0.90325,0.82475,0.84075,0.7829999999999999,0.818,0.79825,0.4925872802734375,0.4842254638671875,0.50628662109375,0.5515638334881956,0.5223591904560222,0.2124128893929124,0.20586007272453008,0.00153752342986577
0.655,0.648,0.67175,0.623,0.6855,0.60575,0.903,0.82525,0.8405,0.78325,0.81825,0.7979999999999999,0.495721435546875,0.4791412353515625,0.50687255859375,0.54382007914777,0.5294013519746923,0.2124128893929124,0.20586007272453008,0.00153752342986577
0.655,0.64775,0.6715000000000001,0.62275,0.68525,0.606,0.90275,0.82575,0.84025,0.7835,0.8184999999999999,0.7977500000000001,0.497283935546875,0.4796112060546875,0.5060455322265625,0.5152186744660928,0.5303389954864496,0.2124128893929124,0.20586007272453008,0.00153752342986577
0.655,0.6475,0.6707500000000001,0.62225,0.685,0.60625,0.903,0.82625,0.84025,0.78375,0.8190000000000001,0.79825,0.4939544677734375,0.485162353515625,0.5044219970703125,0.4913317153115941,0.5344305302511052,0.2124128893929124,0.20586007272453008,0.00153752342986577
0.655,0.64775,0.6705,0.62225,0.68625,0.60625,0.904,0.82825,0.8405,0.78425,0.8195,0.799,0.4788116455078125,0.4866729736328125,0.5087005615234375,0.46866434889333053,0.5411907425452974,0.2124128893929124,0.20586007272453008,0.00153752342986577
0.655,0.648,0.67025,0.62225,0.6875,0.60625,0.905,0.83025,0.84075,0.78475,0.82,0.79975,0.4580963134765625,0.5119171142578125,0.52001953125,0.4832338852438229,0.51820864296759,0.2127463071262294,0.20445279255042,0.002820772874080699
0.655,0.64825,0.67,0.62225,0.68875,0.60625,0.9059999999999999,0.8322499999999999,0.841,0.78525,0.8205,0.8005,0.4540924072265625,0.51845703125,0.5065216064453125,0.5026096643955505,0.4758376508692731,0.2127463071262294,0.20445279255042,0.002820772874080699
0.655,0.6485,0.66975,0.62225,0.69,0.60625,0.907,0.8342499999999999,0.84125,0.7857500000000001,0.821,0.80125,0.4568389892578125,0.52796630859375,0.5142333984375,0.5238738447600935,0.4210805829449635,0.2110555421409778,0.2023433573674489,0.0002534709981113135
0.655,0.64875,0.67,0.6225,0.69125,0.60625,0.9075,0.83625,0.84125,0.78625,0.82125,0.80125,0.46158447265625,0.5346588134765625,0.5444671630859375,0.5381942174619118,0.3743229936937361,0.21342390341262565,0.2055089963112665,0.002180410163166794
0.655,0.64875,0.67,0.6225,0.69125,0.60625,0.9075,0.83625,0.84125,0.78625,0.82125,0.80125,0.481329345703125,0.5378326416015625,0.56402587890625,0.5459773135498202,0.3388433529111511,0.21342390341262565,0.2055089963112665,0.002180410163166794
0.655,0.64875,0.67,0.6225,0.69125,0.60625,0.9075,0.83625,0.84125,0.78625,0.82125,0.80125,0.5022918701171875,0.5171417236328125,0.559539794921875,0.5211789396723746,0.3403645635920061,0.21342390341262565,0.2055089963112665,0.002180410163166794
0.65575,0.64875,0.67175,0.623,0.69325,0.60425,0.9079999999999999,0.8355,0.84075,0.787,0.82125,0.8025,0.505352783203125,0.515802001953125,0.579901123046875,0.5023342731886942,0.37091993674111673,0.21342390341262565,0.2055089963112665,0.002180410163166794
0.6565000000000001,0.64875,0.6735,0.6235,0.69525,0.6022500000000001,0.9085,0.83475,0.84025,0.7877500000000001,0.82125,0.80375,0.5037384033203125,0.509393310546875,0.5798492431640625,0.49942954578957466,0.42073962325286074,0.21342390341262565,0.2055089963112665,0.002180410163166794
0.65575,0.64725,0.67475,0.6232500000000001,0.69625,0.599,0.9085,0.833,0.83975,0.78175,0.81825,0.79925,0.5031585693359375,0.500689697265625,0.556439208984375,0.494629860493199,0.4617270992482273,0.21342390341262565,0.2055089963112665,0.002180410163166794
0.655,0.64575,0.6759999999999999,0.623,0.6972499999999999,0.59575,0.9085,0.83125,0.8392499999999999,0.77575,0.81525,0.79475,0.4985198974609375,0.50078125,0.537213134765625,0.49915415399304225,0.485784538146225,0.2884929708350889,0.1460818497845916,0.04832692024080261
0.65425,0.64425,0.6772499999999999,0.62275,0.69825,0.5925,0.9085,0.8295,0.83875,0.7697499999999999,0.8122499999999999,0.79025,0.497589111328125,0.5017303466796875,0.53466796875,0.5032325750042449,0.5008261754665114,0.6931903658728603,0.06495733548208835,0.31871138426541434
0.65275,0.64275,0.67675,0.622,0.6972499999999999,0.59125,0.9079999999999999,0.8284999999999999,0.83875,0.763,0.80925,0.7845,0.497076416015625,0.5022705078125,0.53238525390625,0.50087207396894,0.5057635566739723,0.6931903658728603,0.06495733548208835,0.31871138426541434
0.6509999999999999,0.6415000000000001,0.6757500000000001,0.62075,0.69625,0.58975,0.9072499999999999,0.82825,0.8377500000000001,0.7567499999999999,0.8055,0.77775,0.4955963134765625,0.5002838134765625,0.5306884765625,0.4989771161998742,0.5081502854917929,0.5800078582070548,0.1389816658422173,0.3904641200968323
0.65075,0.6417499999999999,0.67525,0.62025,0.69625,0.5895,0.907,0.8290000000000001,0.83675,0.75725,0.80475,0.7767499999999999,0.4956024169921875,0.500555419921875,0.5302886962890625,0.5002294931595039,0.5063405679790479,0.5800078582070548,0.1389816658422173,0.3904641200968323
0.6505,0.642,0.67475,0.61975,0.69625,0.5892499999999999,0.90675,0.82975,0.83575,0.75775,0.804,0.77575,0.4956634521484375,0.50081787109375,0.53009033203125,0.5009573143342226,0.5042161171658497,0.5800078582070548,0.1389816658422173,0.3904641200968323
0.6502500000000001,0.64225,0.67425,0.61925,0.69625,0.589,0.9065000000000001,0.8305,0.83475,0.75825,0.80325,0.7747499999999999,0.495867919921875,0.50089111328125,0.5307281494140625,0.5013572881089206,0.5025899942012184,0.6193838943158553,0.11770862669810943,0.3252709910963971
0.65,0.6425,0.67375,0.61875,0.69625,0.58875,0.90625,0.83125,0.83375,0.75875,0.8025,0.77375,0.49598388671875,0.500836181640625,0.5311248779296875,0.5020916661795943,0.5015212117704738,0.6193838943158553,0.11770862669810943,0.3252709910963971
0.65,0.6425,0.67375,0.61875,0.69625,0.58875,0.90625,0.83125,0.83375,0.75875,0.8025,0.77375,0.49620361328125,0.5013824462890625,0.5315155029296875,0.5028326012359564,0.5015605534666804,0.5621559726202994,0.12420095209552387,0.29457228886127934
0.65,0.6425,0.67375,0.61875,0.69625,0.58875,0.90625,0.83125,0.83375,0.75875,0.8025,0.77375,0.4962554931640625,0.50152587890625,0.5319366455078125,0.5039276114492166,0.5020129828448666,0.5621559726202994,0.12420095209552387,0.29457228886127934
0.6497499999999999,0.64275,0.67375,0.619,0.6965,0.5892499999999999,0.9052500000000001,0.8315,0.833,0.75875,0.80325,0.7747499999999999,0.49632568359375,0.5018463134765625,0.5319000244140625,0.5037636877492063,0.5033374861599452,0.5621559726202994,0.12420095209552387,0.29457228886127934
0.6495000000000001,0.643,0.67375,0.61925,0.69675,0.58975,0.90425,0.83175,0.8322499999999999,0.75875,0.804,0.77575,0.4960418701171875,0.50194091796875,0.5309417724609375,0.5033637139745083,0.5042554587979611,0.5621559726202994,0.12420095209552387,0.29457228886127934
0.64925,0.64325,0.67375,0.6195,0.6970000000000001,0.5902499999999999,0.90325,0.8320000000000001,0.8315,0.75875,0.80475,0.7767499999999999,0.495758056640625,0.50203857421875,0.530078125,0.5024850830647467,0.5043603699536614,0.5621559726202994,0.12420095209552387,0.29457228886127934
0.649,0.6435,0.67375,0.61975,0.6972499999999999,0.59075,0.90225,0.8322499999999999,0.83075,0.75875,0.8055,0.77775,0.4955963134765625,0.5022125244140625,0.5295440673828125,0.5012523769596298,0.5038554850232632,0.5621559726202994,0.12420095209552387,0.29457228886127934
0.64825,0.643,0.6735,0.62,0.69675,0.59125,0.90125,0.8315,0.82975,0.75875,0.80625,0.779,0.4955474853515625,0.502392578125,0.5292327880859375,0.49967870962412486,0.502983411003047,0.412269415429135,0.17726693367230506,0.19574654048517767
0.64775,0.64225,0.67325,0.62,0.696,0.59125,0.90125,0.8305,0.8295,0.75875,0.80625,0.77925,0.4954681396484375,0.502264404296875,0.5293853759765625,0.49889843292283226,0.5017310341075125,0.4224484550550216,0.18764469719168328,0.19818431423186433
0.64725,0.6415000000000001,0.6729999999999999,0.62,0.69525,0.59125,0.90125,0.8295,0.8292499999999999,0.75875,0.80625,0.7795000000000001,0.4954559326171875,0.50203857421875,0.5296356201171875,0.49820995344432034,0.5007081503137962,0.42853821968395056,0.18922881624340773,0.20356456329709427
0.6467499999999999,0.64075,0.6727500000000001,0.62,0.6945,0.59125,0.90125,0.8284999999999999,0.8290000000000001,0.75875,0.80625,0.7797499999999999,0.495440673828125,0.50189208984375,0.52982177734375,0.49775752408536267,0.49972460821628667,0.42853821968395056,0.18922881624340773,0.20356456329709427
0.6452500000000001,0.637,0.6715000000000001,0.619,0.69375,0.5905,0.9002500000000001,0.828,0.828,0.758,0.8057500000000001,0.7795000000000001,0.4955108642578125,0.5014923095703125,0.5304901123046875,0.49761327123345567,0.49768539759531394,0.42853821968395056,0.18922881624340773,0.20356456329709427
0.64425,0.634,0.6705,0.618,0.69375,0.58975,0.89925,0.8284999999999999,0.8272499999999999,0.75725,0.80525,0.779,0.4955535888671875,0.501153564453125,0.5310272216796875,0.49760015730053603,0.49584945233851063,0.42853821968395056,0.18922881624340773,0.20356456329709427
0.64325,0.631,0.6695,0.617,0.69375,0.589,0.89825,0.8290000000000001,0.8265,0.7565000000000001,0.80475,0.7785,0.4955474853515625,0.5008758544921875,0.532080078125,0.49835420621290355,0.4948068976902815,0.4380159741288262,0.1862426153368357,0.20997338268085824
0.64225,0.628,0.6685,0.616,0.69375,0.58825,0.89725,0.8295,0.82575,0.75575,0.80425,0.778,0.4956817626953125,0.500958251953125,0.5325225830078125,0.4991803815768626,0.49413153211905114,0.44919095340439696,0.18448574273648907,0.21727740190582873
0.64125,0.625,0.6675,0.615,0.69375,0.5875,0.89625,0.83,0.825,0.755,0.80375,0.7775,0.4958526611328125,0.5008880615234375,0.5329345703125,0.49999344303354015,0.49384302646651335,0.5739137842198417,0.17082361258179196,0.37255753928959073
0.64125,0.625,0.6675,0.615,0.69375,0.5875,0.89625,0.83,0.825,0.755,0.80375,0.7775,0.4958404541015625,0.5010040283203125,0.5325225830078125,0.5008327322791428,0.49478722691909244,0.5739137842198417,0.17082361258179196,0.37255753928959073
0.64125,0.625,0.6675,0.615,0.69375,0.5875,0.89625,0.83,0.825,0.755,0.80375,0.7775,0.4958343505859375,0.5011322021484375,0.5319915771484375,0.5019015147098874,0.49554783287483406,0.5739137842198417,0.17082361258179196,0.37255753928959073
0.64125,0.625,0.6675,0.615,0.69375,0.5875,0.89625,0.83,0.825,0.755,0.80375,0.7775,0.49598388671875,0.5012969970703125,0.53099365234375,0.5024588551924978,0.4953052259106009,0.5739137842198417,0.17082361258179196,0.37255753928959073
0.6402500000000001,0.6232500000000001,0.6679999999999999,0.614,0.69375,0.5870000000000001,0.89575,0.83,0.82375,0.75375,0.8022499999999999,0.7765000000000001,0.49620361328125,0.5014801025390625,0.53125,0.5020654383586216,0.49628876800811045,0.5739137842198417,0.17082361258179196,0.37255753928959073
0.63925,0.6214999999999999,0.6685,0.613,0.69375,0.5865,0.8952500000000001,0.83,0.8225,0.7525,0.8007500000000001,0.7755,0.4962860107421875,0.50169677734375,0.5315277099609375,0.5015212117320166,0.49748868930656626,0.5982254733302933,0.1599344627682167,0.41172441361010453
0.63825,0.61975,0.669,0.612,0.69375,0.586,0.8947499999999999,0.83,0.82125,0.75125,0.79925,0.7745000000000001,0.496392822265625,0.5020172119140625,0.5319244384765625,0.5006229099677422,0.4991672677977715,0.5982254733302933,0.1599344627682167,0.41172441361010453
0.63725,0.618,0.6695,0.611,0.69375,0.5855,0.89425,0.83,0.82,0.75,0.7977500000000001,0.7735,0.4965057373046875,0.5023468017578125,0.5323089599609375,0.49901645782557613,0.5013966298307653,0.6651116897845224,0.15205768440890274,0.5182192091371185
0.63625,0.61625,0.67,0.61,0.69375,0.585,0.89375,0.83,0.81875,0.74875,0.79625,0.7725,0.496417236328125,0.502459716796875,0.532354736328125,0.4969575764590525,0.5039341683387623,0.6651116897845224,0.15205768440890274,0.5182192091371185
0.63575,0.61625,0.6695,0.61,0.6927500000000001,0.5845,0.89425,0.83075,0.81825,0.74925,0.7965000000000001,0.772,0.496160888671875,0.5021240234375,0.5317901611328125,0.495947806623894,0.5047603436514452,0.6759317213032863,0.1548778228024776,0.5394309952345946
0.63525,0.61625,0.669,0.61,0.69175,0.584,0.8947499999999999,0.8315,0.8177500000000001,0.7497499999999999,0.79675,0.7715000000000001,0.4959991455078125,0.5017669677734375,0.5312652587890625,0.49555438981565586,0.5049832798957654,0.6759317213032863,0.1548778228024776,0.5394309952345946
0.63475,0.61625,0.6685,0.61,0.69075,0.5835,0.8952500000000001,0.8322499999999999,0.8172499999999999,0.7502500000000001,0.797,0.7709999999999999,0.4959228515625,0.50159912109375,0.5310394287109375,0.49651826103942404,0.5045308505175793,0.6796509699814252,0.15980349000140823,0.5486493100145632
0.63475,0.61725,0.6675,0.61,0.69,0.5835,0.8955,0.8327500000000001,0.8165,0.7505,0.79675,0.7705,0.49583740234375,0.5014801025390625,0.53101806640625,0.4979607894559416,0.5039144974650208,0.6762586749991769,0.15804309074953846,0.5445681481276022
0.63475,0.6182500000000001,0.6665000000000001,0.61,0.6892499999999999,0.5835,0.89575,0.83325,0.81575,0.75075,0.7965000000000001,0.77,0.495892333984375,0.5014892578125,0.5313201904296875,0.4995213428585268,0.5034686250789325,0.6762586749991769,0.15804309074953846,0.5445681481276022
0.63525,0.61925,0.6659999999999999,0.61,0.6895,0.584,0.8955,0.833,0.8155,0.7505,0.7959999999999999,0.77,0.4959930419921875,0.5017303466796875,0.5316375732421875,0.5009638712237682,0.5034751820710304,0.6762586749991769,0.15804309074953846,0.5445681481276022
0.63575,0.62025,0.6655,0.61,0.68975,0.5845,0.8952500000000001,0.8327500000000001,0.81525,0.7502500000000001,0.7955,0.77,0.4959991455078125,0.5019683837890625,0.5317291259765625,0.5018949577177895,0.5039079405754752,0.6762586749991769,0.15804309074953846,0.5445681481276022
0.63625,0.62125,0.665,0.61,0.69,0.585,0.895,0.8325,0.815,0.75,0.795,0.77,0.4959228515625,0.5019378662109375,0.5313079833984375,0.5017310340690554,0.5044390532947985,0.484137480618944,0.16500168705319304,0.3487191752783508
0.63625,0.62125,0.665,0.61,0.69,0.585,0.895,0.8325,0.815,0.75,0.795,0.77,0.495782470703125,0.5017303466796875,0.5308197021484375,0.5017244771282336,0.5043472560207417,0.484137480618944,0.16500168705319304,0.3487191752783508
0.63625,0.62125,0.665,0.61,0.69,0.585,0.895,0.8325,0.815,0.75,0.795,0.77,0.4955963134765625,0.501513671875,0.5302978515625,0.501796603528549,0.5039866239166124,0.48043545679799365,0.17220991398047372,0.34129400135823834
0.63625,0.6232500000000001,0.66525,0.6104999999999999,0.69025,0.5855,0.89575,0.83125,0.81625,0.7505,0.7957500000000001,0.7709999999999999,0.495599365234375,0.5016204833984375,0.530108642578125,0.5015474395209417,0.5026096649852265,0.48043545679799365,0.17220991398047372,0.34129400135823834
0.63625,0.62525,0.6655,0.611,0.6905,0.586,0.8965000000000001,0.83,0.8175,0.7509999999999999,0.7965000000000001,0.772,0.495648193359375,0.501611328125,0.530401611328125,0.5011409087797839,0.501711363208133,0.4128070414109503,0.2050727892363278,0.28341914683987046
0.63625,0.62725,0.6657500000000001,0.6114999999999999,0.69075,0.5865,0.89725,0.82875,0.81875,0.7515000000000001,0.7972499999999999,0.773,0.4957275390625,0.5017303466796875,0.530987548828125,0.5006622516254916,0.5012917185853317,0.4128070414109503,0.2050727892363278,0.28341914683987046
0.63625,0.62925,0.6659999999999999,0.612,0.691,0.5870000000000001,0.898,0.8275,0.82,0.752,0.7979999999999999,0.774,0.4958740234375,0.501922607421875,0.53162841796875,0.5000327847169278,0.5015867812299675,0.4128070414109503,0.2050727892363278,0.28341914683987046
0.636,0.63075,0.66625,0.61275,0.691,0.5875,0.89825,0.82625,0.8222499999999999,0.75275,0.799,0.7752500000000001,0.4959991455078125,0.5021514892578125,0.5321136474609375,0.49946233032703585,0.5021375647717561,0.4128070414109503,0.2050727892363278,0.28341914683987046
0.63575,0.63025,0.66625,0.613,0.69075,0.5875,0.89775,0.82625,0.82325,0.753,0.79925,0.7755,0.49576416015625,0.501959228515625,0.5321075439453125,0.4997901776757803,0.5042948003275202,0.4128070414109503,0.2050727892363278,0.28341914683987046
0.6355,0.62975,0.66625,0.6132500000000001,0.6905,0.5875,0.89725,0.82625,0.8242499999999999,0.75325,0.7995,0.77575,0.49560546875,0.502044677734375,0.531793212890625,0.5003475181840288,0.506006163484377,0.4098019934127266,0.2121038062892374,0.268428291575549
0.6355,0.62925,0.66675,0.61375,0.691,0.58825,0.89825,0.8265,0.82675,0.7545000000000001,0.80025,0.777,0.495489501953125,0.502215576171875,0.531378173828125,0.5008196183718612,0.507343780642642,0.4098019934127266,0.2121038062892374,0.268428291575549
0.6355,0.62875,0.6672499999999999,0.61425,0.6915,0.589,0.89925,0.82675,0.8292499999999999,0.75575,0.8009999999999999,0.77825,0.4953582763671875,0.50233154296875,0.5308380126953125,0.5011605796278873,0.5083010948743122,0.36946447156060164,0.20576417660990712,0.26216891295354405
0.63575,0.62875,0.6677500000000001,0.6145,0.6922499999999999,0.58975,0.90075,0.8270000000000001,0.83075,0.7567499999999999,0.8015000000000001,0.77925,0.49517822265625,0.5023193359375,0.5304901123046875,0.5013048324669752,0.508910891037325,0.37119830497679857,0.20118772865812237,0.24554032530376768
0.636,0.62875,0.66825,0.61475,0.693,0.5905,0.90225,0.8272499999999999,0.8322499999999999,0.75775,0.802,0.7802500000000001,0.49503173828125,0.5023773193359375,0.53016357421875,0.5007868336485238,0.5085305881620066,0.37119830497679857,0.20118772865812237,0.24554032530376768
0.63625,0.62875,0.66875,0.615,0.69375,0.59125,0.90375,0.8275,0.83375,0.75875,0.8025,0.78125,0.4947723388671875,0.5022552490234375,0.529766845703125,0.5002229361994537,0.5078880074487135,0.37119830497679857,0.20118772865812237,0.24554032530376768
0.6365,0.62975,0.6685,0.61575,0.6940000000000001,0.5920000000000001,0.90375,0.828,0.8334999999999999,0.7595000000000001,0.80375,0.782,0.4946380615234375,0.5019805908203125,0.529693603515625,0.4998098485431122,0.5050226215919721,0.37119830497679857,0.20118772865812237,0.24554032530376768
0.6367499999999999,0.63075,0.66825,0.6164999999999999,0.6942499999999999,0.59275,0.90375,0.8284999999999999,0.83325,0.7602500000000001,0.805,0.7827500000000001,0.4945465087890625,0.5019805908203125,0.5296600341796875,0.49946233033344534,0.5020392106978869,0.37119830497679857,0.20118772865812237,0.24554032530376768
0.637,0.6317499999999999,0.6679999999999999,0.61725,0.6945,0.5935,0.90375,0.8290000000000001,0.833,0.7609999999999999,0.80625,0.7835,0.4945159912109375,0.5020721435546875,0.529632568359375,0.499042685697825,0.4989377746639056,0.37119830497679857,0.20118772865812237,0.24554032530376768
0.63725,0.63275,0.6677500000000001,0.618,0.69475,0.59425,0.90375,0.8295,0.8327500000000001,0.7617499999999999,0.8075,0.78425,0.4946044921875,0.502197265625,0.5298126220703125,0.4986033702333299,0.4959478067777225,0.3644740083004361,0.20083145829026405,0.22647146176247918
0.6375,0.63375,0.6675,0.61875,0.695,0.595,0.90375,0.83,0.8325,0.7625,0.80875,0.785,0.4947998046875,0.5023284912109375,0.53006591796875,0.4981247130662186,0.49291849714405656,0.3279569379744043,0.17601811712467996,0.17464702274142466
0.6375,0.63375,0.6675,0.61875,0.695,0.595,0.90375,0.83,0.8325,0.7625,0.80875,0.785,0.49486083984375,0.502325439453125,0.5300079345703125,0.49758704338043536,0.4919874106243971,0.3279569379744043,0.17601811712467996,0.17464702274142466
0.63825,0.6345000000000001,0.6679999999999999,0.6195,0.69575,0.5954999999999999,0.9045000000000001,0.83,0.8320000000000001,0.76225,0.80875,0.785,0.4948883056640625,0.50213623046875,0.529974365234375,0.4971083862261431,0.4912595894240404,0.3279569379744043,0.17601811712467996,0.17464702274142466
0.639,0.63525,0.6685,0.62025,0.6965,0.596,0.9052500000000001,0.83,0.8315,0.762,0.80875,0.785,0.4948577880859375,0.501910400390625,0.5298065185546875,0.4968329944552488,0.4903088319280872,0.3279569379744043,0.17601811712467996,0.17464702274142466
0.63975,0.636,0.669,0.621,0.6972499999999999,0.5965,0.9059999999999999,0.83,0.831,0.7617499999999999,0.80875,0.785,0.49490966796875,0.5017303466796875,0.5296417236328125,0.4969772473071558,0.4871221557146993,0.3279569379744043,0.17601811712467996,0.17464702274142466
0.6405,0.6367499999999999,0.6695,0.62175,0.698,0.597,0.90675,0.83,0.8305,0.7615000000000001,0.80875,0.785,0.4949859619140625,0.5017242431640625,0.529425048828125,0.49687889309227723,0.4836010749553643,0.30970055958652193,0.18357315400252142,0.15646293883977014
0.64125,0.6375,0.67,0.6225,0.69875,0.5975,0.9075,0.83,0.83,0.76125,0.80875,0.785,0.4951690673828125,0.5018646240234375,0.5292572021484375,0.49657727350681974,0.4797062483128087,0.30970055958652193,0.18357315400252142,0.15646293883977014
0.642,0.63875,0.6707500000000001,0.6232500000000001,0.6990000000000001,0.598,0.9075,0.8305,0.8295,0.7615000000000001,0.80825,0.785,0.495465087890625,0.5027435302734375,0.52916259765625,0.49893121756925535,0.47863746598461643,0.30970055958652193,0.18357315400252142,0.15646293883977014
0.64275,0.64,0.6715000000000001,0.624,0.6992499999999999,0.5985,0.9075,0.831,0.8290000000000001,0.7617499999999999,0.8077500000000001,0.785,0.4973876953125,0.503839111328125,0.529608154296875,0.5013310602174431,0.4780735685611843,0.2576353581069817,0.18882817684577377,0.09843751240867946
0.6435,0.64125,0.6722499999999999,0.62475,0.6995,0.599,0.9075,0.8315,0.8284999999999999,0.762,0.8072499999999999,0.785,0.49752197265625,0.5039642333984375,0.5301849365234375,0.5030293095311136,0.4801914624463799,0.2576353581069817,0.18882817684577377,0.09843751240867946
0.64425,0.6425,0.6729999999999999,0.6255,0.69975,0.5995,0.9075,0.8320000000000001,0.828,0.76225,0.80675,0.785,0.4981048583984375,0.5042572021484375,0.5309539794921875,0.5043997115473158,0.48303062074493897,0.2576353581069817,0.18882817684577377,0.09843751240867946
0.645,0.64375,0.67375,0.62625,0.7,0.6,0.9075,0.8325,0.8275,0.7625,0.80625,0.785,0.498486328125,0.5044342041015625,0.5317626953125,0.5057307718673112,0.48681397934224857,0.2576353581069817,0.18882817684577377,0.09843751240867946
0.6455,0.6445000000000001,0.674,0.6267499999999999,0.7005,0.60175,0.905,0.8322499999999999,0.8272499999999999,0.7595000000000001,0.80525,0.7795000000000001,0.4984100341796875,0.5035491943359375,0.5319000244140625,0.5037571307571084,0.48859091199705623,0.24681963594650203,0.1949798290154512,0.08689869652539828
0.6459999999999999,0.6452500000000001,0.67425,0.62725,0.701,0.6035,0.9025,0.8320000000000001,0.8270000000000001,0.7565000000000001,0.80425,0.774,0.4967803955078125,0.5024169921875,0.5314361572265625,0.5019670842014287,0.48969247928573817,0.24681963594650203,0.1949798290154512,0.08689869652539828
0.6465000000000001,0.6459999999999999,0.6745,0.62775,0.7015,0.60525,0.9,0.83175,0.82675,0.7535,0.80325,0.7685,0.4970123291015625,0.5020904541015625,0.530938720703125,0.5009507573998103,0.4900072126502868,0.24681963594650203,0.1949798290154512,0.08689869652539828
0.647,0.6467499999999999,0.67475,0.62825,0.7020000000000001,0.607,0.8975,0.8315,0.8265,0.7505,0.8022499999999999,0.763,0.49696044921875,0.5015289306640625,0.5304229736328125,0.5007540489700533,0.4902301487407786,0.2663863484995902,0.29329126346502715,0.14007743520801508
0.6475,0.6475,0.675,0.62875,0.7025,0.60875,0.895,0.83125,0.82625,0.7475,0.80125,0.7575,0.4970550537109375,0.5011993408203125,0.530523681640625,0.5012130352890611,0.4903678445493115,0.271813591212152,0.29768641621344866,0.14658114729989402
0.6475,0.6475,0.675,0.62875,0.7025,0.60875,0.895,0.83125,0.82625,0.7475,0.80125,0.7575,0.49754638671875,0.5014251708984375,0.531402587890625,0.5025113108280337,0.49032194591228306,0.271813591212152,0.29768641621344866,0.14658114729989402
0.6475,0.6475,0.675,0.62875,0.7025,0.60875,0.895,0.83125,0.82625,0.7475,0.80125,0.7575,0.4981292724609375,0.5018218994140625,0.531884765625,0.503429283434002,0.4916136644335195,0.271813591212152,0.29768641621344866,0.14658114729989402
0.647,0.6465000000000001,0.6745,0.628,0.70175,0.60775,0.8967499999999999,0.831,0.82625,0.7454999999999999,0.7995,0.74625,0.4983551025390625,0.502105712890625,0.5322723388671875,0.5023932857586423,0.4945249490298417,0.271813591212152,0.29768641621344866,0.14658114729989402
0.6465000000000001,0.6455,0.674,0.62725,0.701,0.60675,0.8985,0.83075,0.82625,0.7434999999999999,0.7977500000000001,0.735,0.49832763671875,0.5023529052734375,0.5325775146484375,0.5010491116082795,0.4974821322631922,0.3178277871354245,0.29260470559628743,0.23992461452504157
0.6459999999999999,0.6445000000000001,0.6735,0.6265,0.70025,0.60575,0.9002500000000001,0.8305,0.82625,0.7415,0.7959999999999999,0.72375,0.4981231689453125,0.50240478515625,0.5319610595703125,0.49927217885091946,0.5001639237256484,0.3178277871354245,0.29260470559628743,0.23992461452504157
0.644,0.64225,0.67175,0.62425,0.69825,0.6015,0.9009999999999999,0.82875,0.8245,0.7382500000000001,0.79375,0.70975,0.4979461669921875,0.502197265625,0.53138427734375,0.4972329682555849,0.5021572356839547,0.44016109974219764,0.4039674698695529,0.4349338317564771
0.642,0.64,0.67,0.622,0.69625,0.5972500000000001,0.9017499999999999,0.8270000000000001,0.8227500000000001,0.735,0.7915000000000001,0.69575,0.49769287109375,0.5018951416015625,0.531573486328125,0.49535112439380075,0.5036259918637591,0.44016109974219764,0.4039674698695529,0.4349338317564771
0.6405,0.63875,0.66875,0.6204999999999999,0.695,0.594,0.90075,0.8255,0.821,0.73375,0.7909999999999999,0.693,0.497528076171875,0.5018341064453125,0.5316253662109375,0.49516097295614153,0.5041243197764215,0.44016109974219764,0.4039674698695529,0.4349338317564771
0.639,0.6375,0.6675,0.619,0.69375,0.59075,0.8997499999999999,0.8240000000000001,0.8192499999999999,0.7325,0.7905,0.69025,0.4973907470703125,0.5017547607421875,0.5312347412109375,0.49498393529757345,0.5042882434507937,0.44016109974219764,0.4039674698695529,0.4349338317564771
0.636,0.634,0.66625,0.6154999999999999,0.691,0.586,0.8985,0.82175,0.81825,0.73175,0.79175,0.6915,0.4974761962890625,0.5017608642578125,0.5316497802734375,0.49541013691247265,0.5044521670738897,0.44016109974219764,0.4039674698695529,0.4349338317564771
0.6345000000000001,0.6317499999999999,0.66625,0.6135,0.6895,0.5845,0.89825,0.821,0.8190000000000001,0.73225,0.7935,0.6955,0.497491455078125,0.5017791748046875,0.5319000244140625,0.49585600934983715,0.5050226214894198,0.46854698947957785,0.4182234239801348,0.466402526116799
0.633,0.6295000000000001,0.66625,0.6114999999999999,0.688,0.583,0.898,0.82025,0.81975,0.73275,0.79525,0.6995,0.497479248046875,0.5018463134765625,0.5322235107421875,0.49633466649131036,0.5059143663641488,0.46854698947957785,0.4182234239801348,0.466402526116799
0.6315,0.62725,0.66625,0.6095,0.6865000000000001,0.5815,0.89775,0.8195,0.8205,0.7332500000000001,0.797,0.7034999999999999,0.4976104736328125,0.502044677734375,0.532891845703125,0.4964854762327629,0.5074027935202471,0.5646836879248414,0.4859924173064051,0.6296958495574662
0.63,0.625,0.66625,0.6075,0.685,0.58,0.8975,0.81875,0.82125,0.73375,0.79875,0.7075,0.4977447509765625,0.502435302734375,0.53441162109375,0.4962822109134602,0.5104255463669197,0.575153072661117,0.507806190770504,0.6477728549491822
0.63,0.625,0.66625,0.6075,0.685,0.58,0.8975,0.81875,0.82125,0.73375,0.79875,0.7075,0.497674560546875,0.5027374267578125,0.53587646484375,0.49380368492413523,0.516143204506416,0.575153072661117,0.507806190770504,0.6477728549491822
0.63,0.625,0.66625,0.6075,0.685,0.58,0.8975,0.81875,0.82125,0.73375,0.79875,0.7075,0.4960479736328125,0.5019073486328125,0.5404998779296875,0.4890892398584423,0.5256507777225581,0.575153072661117,0.507806190770504,0.6477728549491822
0.63075,0.62175,0.6677500000000001,0.6065,0.6859999999999999,0.57975,0.89825,0.81875,0.8245,0.73725,0.8007500000000001,0.718,0.497540283203125,0.5022430419921875,0.551373291015625,0.48714838342671013,0.5706052078888715,0.575153072661117,0.507806190770504,0.6477728549491822
0.6315,0.6185,0.66925,0.6054999999999999,0.687,0.5795,0.899,0.81875,0.8277500000000001,0.74075,0.8027500000000001,0.7284999999999999,0.5005279541015625,0.5045623779296875,0.5648681640625,0.48339125264396365,0.6189626923414431,0.575153072661117,0.507806190770504,0.6477728549491822
0.63225,0.61525,0.6707500000000001,0.6045,0.688,0.5792499999999999,0.8997499999999999,0.81875,0.831,0.74425,0.80475,0.7390000000000001,0.5016754150390625,0.5064056396484375,0.574505615234375,0.48140449757520304,0.6678381762982848,0.575153072661117,0.507806190770504,0.6477728549491822
0.6345000000000001,0.6114999999999999,0.6735,0.6072500000000001,0.69125,0.5842499999999999,0.902,0.82075,0.8365,0.7525,0.80875,0.754,0.5033172607421875,0.5122283935546875,0.5851776123046875,0.48312897460088433,0.7175267248140127,0.5468271157013527,0.5204449852946705,0.5391730239410296
0.6367499999999999,0.60775,0.67625,0.61,0.6945,0.5892499999999999,0.90425,0.8227500000000001,0.8420000000000001,0.76075,0.8127500000000001,0.769,0.5091705322265625,0.515875244140625,0.5906097412109375,0.4874762306216261,0.7634187993125021,0.4943918879029936,0.5207709997858475,0.4827801278974081
0.63825,0.6072500000000001,0.6775,0.61375,0.69675,0.5945,0.90575,0.82475,0.84425,0.7655,0.81475,0.7735,0.5099853515625,0.514080810546875,0.588128662109375,0.48090616966254074,0.7698380512992775,0.4943918879029936,0.5207709997858475,0.4827801278974081
0.63975,0.60675,0.67875,0.6175,0.6990000000000001,0.59975,0.9072499999999999,0.82675,0.8465,0.7702500000000001,0.81675,0.778,0.5185272216796875,0.5102996826171875,0.556536865234375,0.4816798893973735,0.7619959437182207,0.4393367169872418,0.4977039469013728,0.396175986000007
0.64225,0.6154999999999999,0.6795,0.622,0.7020000000000001,0.604,0.90825,0.8290000000000001,0.84425,0.7702500000000001,0.816,0.779,0.5332550048828125,0.5100311279296875,0.540802001953125,0.48739099054477186,0.6759819116689871,0.3869553142476075,0.4107995562791495,0.28705563756350516
0.64325,0.62475,0.679,0.62275,0.7027500000000001,0.603,0.9077500000000001,0.8292499999999999,0.83975,0.7655,0.81325,0.7755,0.5436431884765625,0.5064788818359375,0.5253692626953125,0.4871352695963428,0.5899350891214371,0.3869553142476075,0.4107995562791495,0.28705563756350516
0.64425,0.634,0.6785,0.6235,0.7034999999999999,0.602,0.9072499999999999,0.8295,0.83525,0.76075,0.8105,0.772,0.5507080078125,0.5072357177734375,0.5122283935546875,0.48704347232228595,0.5051931032839658,0.21074796798141762,0.2051512354093795,0.001157244412633422
0.6452500000000001,0.64325,0.6779999999999999,0.62425,0.7042499999999999,0.601,0.90675,0.82975,0.83075,0.7559999999999999,0.8077500000000001,0.7685,0.5583526611328125,0.513037109375,0.5016204833984375,0.4982033963688986,0.4225821257260952,0.2121160802450972,0.20374581021905327,0.0020525001631640587
0.64625,0.6525,0.6775,0.625,0.705,0.6,0.90625,0.83,0.82625,0.75125,0.805,0.765,0.5522613525390625,0.518096923828125,0.51943359375,0.5113500758944812,0.3442856190233722,0.2121160802450972,0.20374581021905327,0.0020525001631640587
0.64625,0.6525,0.6775,0.625,0.705,0.6,0.90625,0.83,0.82625,0.75125,0.805,0.765,0.5398345947265625,0.519317626953125,0.52484130859375,0.5198806645692496,0.3406792975718689,0.2121160802450972,0.20374581021905327,0.0020525001631640587
0.6467499999999999,0.65275,0.6777500000000001,0.62525,0.70525,0.60025,0.9059999999999999,0.831,0.828,0.7525,0.8057500000000001,0.76575,0.5228515625,0.5190338134765625,0.5261077880859375,0.5326929398565422,0.3436823814932948,0.2121160802450972,0.20374581021905327,0.0020525001631640587
0.64725,0.653,0.6779999999999999,0.6255,0.7055,0.6004999999999999,0.90575,0.8320000000000001,0.82975,0.75375,0.8065000000000001,0.7665000000000001,0.5044464111328125,0.5183197021484375,0.526531982421875,0.5492361181120181,0.35498655793032885,0.2114255642678139,0.2056795216970142,0.0032080243512299564
0.64775,0.65325,0.67825,0.62575,0.70575,0.60075,0.9055,0.833,0.8315,0.755,0.8072499999999999,0.76725,0.4857879638671875,0.51517333984375,0.52669677734375,0.5656284857543465,0.37562782630172076,0.2114255642678139,0.2056795216970142,0.0032080243512299564
0.64825,0.6535,0.6785,0.626,0.706,0.601,0.9052500000000001,0.8340000000000001,0.83325,0.75625,0.8079999999999999,0.768,0.47161865234375,0.511041259765625,0.52425537109375,0.576493347617809,0.4076847412064396,0.2114255642678139,0.2056795216970142,0.0032080243512299564
0.64875,0.65375,0.67875,0.62625,0.70625,0.60125,0.905,0.835,0.835,0.7575,0.80875,0.76875,0.459698486328125,0.50565185546875,0.521685791015625,0.5857255284990188,0.44296767355926747,0.2131249437776511,0.20585524758435825,0.0017926611740606538
0.64925,0.65375,0.67875,0.62625,0.70625,0.6015,0.9059999999999999,0.83525,0.8355,0.7585,0.80925,0.7705,0.4561126708984375,0.499432373046875,0.5221588134765625,0.5910366555897003,0.46773326268132814,0.21244303813297064,0.2048007154912511,0.0019247927331763547
0.6497499999999999,0.65375,0.67875,0.62625,0.70625,0.60175,0.907,0.8355,0.836,0.7595000000000001,0.80975,0.77225,0.45433349609375,0.491363525390625,0.5225372314453125,0.5875745867337231,0.4774572148933118,0.21244303813297064,0.2048007154912511,0.0019247927331763547
0.6502500000000001,0.65375,0.67875,0.62625,0.70625,0.602,0.9079999999999999,0.83575,0.8365,0.7605,0.81025,0.774,0.4539825439453125,0.4846832275390625,0.5201263427734375,0.5762900806576687,0.4734574771976082,0.21244303813297064,0.2048007154912511,0.0019247927331763547
0.65075,0.65375,0.67875,0.62625,0.70625,0.6022500000000001,0.909,0.836,0.8370000000000001,0.7615000000000001,0.8107500000000001,0.77575,0.422625732421875,0.527264404296875,0.5126708984375,0.5603894829103812,0.49115467785813066,0.21244303813297064,0.2048007154912511,0.0019247927331763547
0.6505,0.65325,0.67825,0.62575,0.70525,0.6022500000000001,0.90925,0.83625,0.838,0.76375,0.81175,0.7802500000000001,0.3910125732421875,0.57171630859375,0.505328369140625,0.5445151139519042,0.5072585404119592,0.21244303813297064,0.2048007154912511,0.0019247927331763547
0.6497499999999999,0.65275,0.6777500000000001,0.62525,0.7042499999999999,0.602,0.9085,0.83625,0.8384999999999999,0.765,0.8122499999999999,0.7829999999999999,0.364825439453125,0.550701904296875,0.466802978515625,0.5068979081027251,0.49800668752893207,0.21244303813297064,0.2048007154912511,0.0019247927331763547
0.649,0.65225,0.6772499999999999,0.62475,0.70325,0.60175,0.9077500000000001,0.83625,0.8390000000000001,0.76625,0.8127500000000001,0.7857500000000001,0.3889617919921875,0.5588348388671875,0.49324951171875,0.39579043691632537,0.462127072074316,0.21244518862012998,0.20550416898876078,0.003594140626015056
0.64825,0.6517499999999999,0.67675,0.62425,0.7022499999999999,0.6015,0.907,0.83625,0.8395,0.7675,0.81325,0.7885,0.41859130859375,0.5146087646484375,0.4805877685546875,0.38908268025125947,0.4633204368421595,0.21074365862313346,0.20462498960390701,0.0014154879602985544
0.6475,0.65125,0.67625,0.62375,0.70125,0.60125,0.90625,0.83625,0.84,0.76875,0.81375,0.79125,0.4524993896484375,0.4717437744140625,0.4967071533203125,0.3816274313069908,0.44520359135373105,0.21244088345382856,0.20480108648800785,0.002309031589062262
0.6475,0.65125,0.67625,0.62375,0.70125,0.60125,0.90625,0.83625,0.84,0.76875,0.81375,0.79125,0.495269775390625,0.4278045654296875,0.5058349609375,0.37576552067452074,0.43483705760803554,0.21244088345382856,0.20480108648800785,0.002309031589062262
0.6475,0.65125,0.67625,0.62375,0.70125,0.60125,0.90625,0.83625,0.84,0.76875,0.81375,0.79125,0.5294219970703125,0.4541656494140625,0.5442718505859375,0.39620352454702873,0.4497147711513974,0.21244088345382856,0.20480108648800785,0.002309031589062262
0.64575,0.64625,0.675,0.62175,0.7,0.5985,0.9047499999999999,0.833,0.83675,0.76325,0.8107500000000001,0.784,0.51392822265625,0.45191650390625,0.5196624755859375,0.49377745695574354,0.4958232247482807,0.21244088345382856,0.20480108648800785,0.002309031589062262
0.644,0.64125,0.67375,0.61975,0.69875,0.59575,0.90325,0.82975,0.8334999999999999,0.75775,0.8077500000000001,0.7767499999999999,0.4931121826171875,0.5022430419921875,0.5360504150390625,0.49178414499743733,0.5106091406073764,0.21244088345382856,0.20480108648800785,0.002309031589062262
0.64225,0.63625,0.6725,0.61775,0.6975,0.593,0.9017499999999999,0.8265,0.83025,0.75225,0.80475,0.7695000000000001,0.498870849609375,0.503717041015625,0.5294586181640625,0.4921513340936646,0.5171726449845732,0.21176328716743234,0.20409744530978585,0.002437162795521397
0.6405,0.63125,0.67125,0.61575,0.69625,0.5902499999999999,0.9002500000000001,0.82325,0.8270000000000001,0.74675,0.80175,0.76225,0.49595947265625,0.5056060791015625,0.5290374755859375,0.4905514389948728,0.5157104457968665,0.21176328716743234,0.20409744530978585,0.002437162795521397
0.63875,0.62625,0.67,0.61375,0.695,0.5875,0.89875,0.82,0.82375,0.74125,0.79875,0.755,0.495806884765625,0.5032379150390625,0.529595947265625,0.48807946999764573,0.5135007546376141,0.21074150813597411,0.20673591095623908,0.0029540590822819983
0.6367499999999999,0.62175,0.669,0.61225,0.6942499999999999,0.5865,0.89875,0.81975,0.8242499999999999,0.74225,0.799,0.7547499999999999,0.494818115234375,0.5014251708984375,0.52857666015625,0.4872073959966582,0.5103075212462521,0.21074150813597411,0.20673591095623908,0.0029540590822819983
0.63475,0.61725,0.6679999999999999,0.61075,0.6934999999999999,0.5855,0.89875,0.8195,0.82475,0.7432500000000001,0.79925,0.7545000000000001,0.4944610595703125,0.499859619140625,0.528350830078125,0.4886761521956913,0.5053635830466934,0.21074150813597411,0.20673591095623908,0.0029540590822819983
0.63275,0.61275,0.667,0.60925,0.6927500000000001,0.5845,0.89875,0.8192499999999999,0.82525,0.74425,0.7995,0.75425,0.4945587158203125,0.4988677978515625,0.52860107421875,0.49213822038507826,0.5005507836635695,0.21074150813597411,0.20673591095623908,0.0029540590822819983
0.63075,0.6082500000000001,0.6659999999999999,0.60775,0.6920000000000001,0.5835,0.89875,0.8190000000000001,0.82575,0.7452500000000001,0.79975,0.754,0.49456787109375,0.4989105224609375,0.5294677734375,0.4931611041787945,0.49992131672936757,0.2154782306792698,0.20691237665476278,0.0029523388577144686
0.62875,0.60375,0.665,0.60625,0.69125,0.5825,0.89875,0.81875,0.82625,0.74625,0.8,0.75375,0.4947479248046875,0.5015411376953125,0.5305206298828125,0.49501016323391756,0.5005770114268565,0.2154782306792698,0.20691237665476278,0.0029523388577144686
0.62875,0.60175,0.66475,0.605,0.6920000000000001,0.58275,0.89925,0.82,0.82625,0.74675,0.80025,0.755,0.4955047607421875,0.500714111328125,0.5324493408203125,0.4960264901380882,0.5038161433526945,0.2154782306792698,0.20691237665476278,0.0029523388577144686
0.62875,0.59975,0.6645,0.60375,0.6927500000000001,0.583,0.8997499999999999,0.82125,0.82625,0.74725,0.8005,0.75625,0.4956298828125,0.499639892578125,0.5335845947265625,0.49470198684223826,0.5088059800867294,0.2154782306792698,0.20691237665476278,0.0029523388577144686
0.62875,0.59775,0.66425,0.6025,0.6934999999999999,0.58325,0.9002500000000001,0.8225,0.82625,0.74775,0.8007500000000001,0.7575,0.4955780029296875,0.49971923828125,0.533184814453125,0.4943741394678557,0.513926955842304,0.20633819913401263,0.20620910865563147,0.0015400280055314491
0.62875,0.59575,0.664,0.60125,0.6942499999999999,0.5835,0.90075,0.82375,0.82625,0.7482500000000001,0.8009999999999999,0.75875,0.4952728271484375,0.498583984375,0.532403564453125,0.49674119733502053,0.5148318145986764,0.20938846605034095,0.20708828804048524,0.0016696039413376872
0.62875,0.59375,0.66375,0.6,0.695,0.58375,0.90125,0.825,0.82625,0.74875,0.80125,0.76,0.4951141357421875,0.4968353271484375,0.530584716796875,0.49857058561895445,0.5140843226271307,0.20938846605034095,0.20708828804048524,0.0016696039413376872
0.62875,0.59375,0.66375,0.6,0.695,0.58375,0.90125,0.825,0.82625,0.74875,0.80125,0.76,0.4948150634765625,0.4986968994140625,0.528143310546875,0.5005114419481344,0.5114353159713355,0.20938846605034095,0.20708828804048524,0.0016696039413376872
0.629,0.59525,0.66375,0.6015,0.69525,0.5845,0.90075,0.82575,0.82675,0.74875,0.80125,0.76,0.4947265625,0.500274658203125,0.5268890380859375,0.5031079929748031,0.5024654123127862,0.20938846605034095,0.20708828804048524,0.0016696039413376872
0.62925,0.59675,0.66375,0.603,0.6955,0.5852499999999999,0.9002500000000001,0.8265,0.8272499999999999,0.74875,0.80125,0.76,0.494903564453125,0.4995452880859375,0.52850341796875,0.5069569209546921,0.4944921646846661,0.20938846605034095,0.20708828804048524,0.0016696039413376872
0.6295000000000001,0.5982500000000001,0.66375,0.6045,0.69575,0.586,0.8997499999999999,0.8272499999999999,0.8277500000000001,0.74875,0.80125,0.76,0.4955963134765625,0.5005950927734375,0.5302337646484375,0.509619041569045,0.48927283466293686,0.20938846605034095,0.20708828804048524,0.0016696039413376872
0.62975,0.59975,0.66375,0.606,0.696,0.58675,0.89925,0.828,0.82825,0.74875,0.80125,0.76,0.496551513671875,0.5008056640625,0.532965087890625,0.5119598717498371,0.48571896935332165,0.20871086557196192,0.20691293533223182,0.0021827778015023197
0.63,0.60125,0.66375,0.6075,0.69625,0.5875,0.89875,0.82875,0.82875,0.74875,0.80125,0.76,0.4975494384765625,0.5014984130859375,0.5352752685546875,0.5130024264172948,0.4845452757668766,0.21074150813597411,0.20691200565800602,0.0020570401623406383
0.63,0.60125,0.66375,0.6075,0.69625,0.5875,0.89875,0.82875,0.82875,0.74875,0.80125,0.76,0.4980072021484375,0.5023681640625,0.535919189453125,0.5129827556461057,0.4901776932911188,0.2080332692855657,0.20655999957051666,0.002057596824741906
0.62975,0.6032500000000001,0.664,0.6082500000000001,0.6965,0.588,0.8975,0.8277500000000001,0.82675,0.7475,0.8,0.759,0.4979766845703125,0.5033721923828125,0.534283447265625,0.5088715497769659,0.49525932724793437,0.2080332692855657,0.20655999957051666,0.002057596824741906
0.6295000000000001,0.60525,0.66425,0.609,0.69675,0.5885,0.89625,0.82675,0.82475,0.74625,0.79875,0.758,0.4975555419921875,0.5032501220703125,0.533099365234375,0.5059274804252588,0.4979345616670165,0.2080332692855657,0.20655999957051666,0.002057596824741906
0.62925,0.6072500000000001,0.6645,0.60975,0.6970000000000001,0.589,0.895,0.82575,0.8227500000000001,0.745,0.7975,0.757,0.4970245361328125,0.503155517578125,0.5316162109375,0.5038161433783327,0.49986230408891474,0.2080332692855657,0.20655999957051666,0.002057596824741906
0.629,0.60925,0.66475,0.6104999999999999,0.6972499999999999,0.5895,0.89375,0.82475,0.82075,0.74375,0.79625,0.7559999999999999,0.496478271484375,0.5027313232421875,0.5306365966796875,0.5028457151111904,0.4998164054518863,0.20871732541740548,0.20761509034109285,0.0023086491368739105
0.62875,0.61125,0.665,0.61125,0.6975,0.59,0.8925,0.82375,0.81875,0.7425,0.795,0.755,0.496331787109375,0.502447509765625,0.5302520751953125,0.5021703494886839,0.49906235651388076,0.20871732541740548,0.20761509034109285,0.0023086491368739105
0.62925,0.61275,0.66525,0.6114999999999999,0.6970000000000001,0.59075,0.89275,0.82375,0.8190000000000001,0.7434999999999999,0.7957500000000001,0.75625,0.496295166015625,0.5023681640625,0.5301055908203125,0.5024063995890096,0.4976263850381849,0.20871732541740548,0.20761509034109285,0.0023086491368739105
0.62975,0.61425,0.6655,0.61175,0.6965,0.5915,0.893,0.82375,0.8192499999999999,0.7445,0.7965000000000001,0.7575,0.496282958984375,0.5024749755859375,0.5299774169921875,0.5027801455747825,0.49615107186628243,0.21177190169201798,0.20726364074873863,0.0015465491394549022
0.63025,0.61575,0.6657500000000001,0.612,0.696,0.59225,0.89325,0.82375,0.8195,0.7454999999999999,0.7972499999999999,0.75875,0.496331787109375,0.502459716796875,0.530084228515625,0.5022752606187461,0.4953117826463179,0.21177190169201798,0.20726364074873863,0.0015465491394549022
0.63075,0.61725,0.6659999999999999,0.61225,0.6955,0.593,0.8935,0.82375,0.81975,0.7465,0.7979999999999999,0.76,0.49627685546875,0.502264404296875,0.530096435546875,0.5019736410845648,0.49457740455641563,0.21177190169201798,0.20726364074873863,0.0015465491394549022
0.63125,0.61875,0.66625,0.6125,0.695,0.59375,0.89375,0.82375,0.82,0.7475,0.79875,0.76125,0.49613037109375,0.502001953125,0.530145263671875,0.5020392105953346,0.49325945827189216,0.210750118468577,0.20568026369052775,0.001413881174939437
0.632,0.61975,0.6665000000000001,0.6132500000000001,0.69525,0.59425,0.892,0.823,0.818,0.74575,0.7977500000000001,0.759,0.4962982177734375,0.5020721435546875,0.53038330078125,0.5017375910291056,0.49389548219819207,0.210750118468577,0.20568026369052775,0.001413881174939437
0.63275,0.62075,0.66675,0.614,0.6955,0.59475,0.8902500000000001,0.8222499999999999,0.816,0.7440000000000001,0.79675,0.7567499999999999,0.49635009765625,0.5020721435546875,0.5304107666015625,0.5012392630395291,0.49449216442828525,0.210750118468577,0.20568026369052775,0.001413881174939437
0.6335000000000001,0.62175,0.667,0.61475,0.69575,0.59525,0.8885,0.8215,0.8140000000000001,0.74225,0.7957500000000001,0.7545000000000001,0.496331787109375,0.50196533203125,0.5302825927734375,0.5010687824243352,0.4947478853767143,0.210750118468577,0.20568026369052775,0.001413881174939437
0.63425,0.62275,0.6672499999999999,0.6154999999999999,0.696,0.59575,0.8867499999999999,0.82075,0.812,0.7404999999999999,0.79475,0.75225,0.496417236328125,0.5019500732421875,0.530413818359375,0.5012523769211726,0.4947019867396859,0.21074150813597411,0.20497681019301803,0.0021829114977122296
0.635,0.62375,0.6675,0.61625,0.69625,0.59625,0.885,0.82,0.81,0.73875,0.79375,0.75,0.496588134765625,0.5020111083984375,0.530548095703125,0.5013900727809817,0.49517408688906117,0.21074150813597411,0.20497681019301803,0.0021829114977122296
0.635,0.62375,0.6675,0.61625,0.69625,0.59625,0.885,0.82,0.81,0.73875,0.79375,0.75,0.496490478515625,0.501861572265625,0.530548095703125,0.502137564784575,0.4936463180880324,0.21074150813597411,0.20497681019301803,0.0021829114977122296
0.635,0.62375,0.6675,0.61625,0.69625,0.59625,0.885,0.82,0.81,0.73875,0.79375,0.75,0.4964935302734375,0.5018280029296875,0.530706787109375,0.5030883221523379,0.49196773964810336,0.21074150813597411,0.20497681019301803,0.0021829114977122296
0.63475,0.623,0.6672499999999999,0.616,0.696,0.596,0.88625,0.8190000000000001,0.8095,0.737,0.7935,0.74675,0.4969512939453125,0.5019744873046875,0.5312225341796875,0.5044193824723333,0.4908006030537563,0.21073504409854782,0.20532900177888577,0.0018011845100125404
0.6345000000000001,0.62225,0.667,0.61575,0.69575,0.59575,0.8875,0.818,0.809,0.7352500000000001,0.79325,0.7434999999999999,0.49730224609375,0.50223388671875,0.5315277099609375,0.5053373551103493,0.4904596419259206,0.21073504409854782,0.20532900177888577,0.0018011845100125404
0.63425,0.6214999999999999,0.66675,0.6154999999999999,0.6955,0.5954999999999999,0.88875,0.8170000000000001,0.8085,0.7334999999999999,0.7929999999999999,0.7402500000000001,0.4976531982421875,0.5024383544921875,0.53157958984375,0.5059668220445512,0.49070224889015385,0.21073504409854782,0.20532900177888577,0.0018011845100125404
0.63475,0.62425,0.66675,0.616,0.69525,0.5972500000000001,0.8897499999999999,0.81575,0.807,0.7297499999999999,0.7909999999999999,0.72925,0.497796630859375,0.5025543212890625,0.5316253662109375,0.5064913777717767,0.4913186020452647,0.20837314267234347,0.2055060261548785,0.001027515333895833
0.63525,0.627,0.66675,0.6164999999999999,0.695,0.599,0.89075,0.8145,0.8055,0.726,0.789,0.71825,0.4979278564453125,0.5026153564453125,0.531781005859375,0.5070159335502783,0.49211199265383887,0.20837314267234347,0.2055060261548785,0.001027515333895833
0.636,0.6305,0.667,0.61725,0.695,0.601,0.8905,0.8142499999999999,0.8045,0.7240000000000001,0.7872499999999999,0.7105,0.4978485107421875,0.502630615234375,0.5317138671875,0.5069306931657671,0.49261032056650117,0.2080311146064236,0.20585728806652048,0.0017957442896892229
0.6367499999999999,0.634,0.6672499999999999,0.618,0.695,0.603,0.8902500000000001,0.8140000000000001,0.8035,0.722,0.7855,0.7027500000000001,0.4976318359375,0.50255126953125,0.5318328857421875,0.507015933447726,0.4925906495902074,0.2080311146064236,0.20585728806652048,0.0017957442896892229
0.63775,0.639,0.6679999999999999,0.61925,0.69525,0.606,0.88925,0.8145,0.8035,0.7202500000000001,0.78325,0.6925,0.497698974609375,0.502642822265625,0.5317840576171875,0.5070290473293695,0.4922955870994002,0.2080311146064236,0.20585728806652048,0.0017957442896892229
0.638,0.6405,0.6685,0.61975,0.6955,0.607,0.8885,0.81525,0.8045,0.7204999999999999,0.7827500000000001,0.69,0.4980224609375,0.502874755859375,0.531494140625,0.5068979084103822,0.4920923216775451,0.2080311146064236,0.20585728806652048,0.0017957442896892229
0.63825,0.642,0.669,0.62025,0.69575,0.608,0.88775,0.816,0.8055,0.72075,0.7822499999999999,0.6875,0.4983184814453125,0.50311279296875,0.5311920166015625,0.5064848206771264,0.4921447772041191,0.20803542396470778,0.2069121911563844,0.0024385029987407515
0.6385000000000001,0.6435,0.6695,0.62075,0.696,0.609,0.887,0.81675,0.8065000000000001,0.721,0.78175,0.685,0.4985748291015625,0.5033721923828125,0.5309051513671875,0.5057766704017873,0.4928201428266256,0.20905504831702393,0.2074397354505056,0.002307979035264231
0.63875,0.645,0.67,0.62125,0.69625,0.61,0.88625,0.8175,0.8075,0.72125,0.78125,0.6825,0.4990814208984375,0.5036865234375,0.5303619384765625,0.504786571363456,0.49402006417635763,0.20905504831702393,0.2074397354505056,0.002307979035264231
0.63875,0.645,0.67,0.62125,0.69625,0.61,0.88625,0.8175,0.8075,0.72125,0.78125,0.6825,0.4992584228515625,0.503887939453125,0.5299835205078125,0.5036194347691089,0.4957576550900919,0.20905504831702393,0.2074397354505056,0.002307979035264231
0.63875,0.645,0.67,0.62125,0.69625,0.61,0.88625,0.8175,0.8075,0.72125,0.78125,0.6825,0.499322509765625,0.5038726806640625,0.5298614501953125,0.5021965772263327,0.49776408098131775,0.20905504831702393,0.2074397354505056,0.002307979035264231
0.63925,0.6452500000000001,0.6705,0.6214999999999999,0.69625,0.60975,0.8855,0.81675,0.8059999999999999,0.72125,0.78,0.6809999999999999,0.4988616943359375,0.5035552978515625,0.53028564453125,0.4989312176205315,0.5021703496232838,0.20905504831702393,0.2074397354505056,0.002307979035264231
0.63975,0.6455,0.6709999999999999,0.62175,0.69625,0.6095,0.8847499999999999,0.816,0.8045,0.72125,0.77875,0.6795,0.498193359375,0.5031951904296875,0.5311065673828125,0.49621008461569716,0.5053504691009546,0.2073578234863288,0.20620892315725306,0.0012853756190925514
0.6402500000000001,0.64575,0.6715000000000001,0.622,0.69625,0.60925,0.884,0.81525,0.8029999999999999,0.72125,0.7775,0.6779999999999999,0.4976165771484375,0.502777099609375,0.5316162109375,0.49470854368050765,0.5070093768209708,0.209057202996166,0.206736838448131,0.0025730111092726413
0.64075,0.6459999999999999,0.672,0.62225,0.69625,0.609,0.88325,0.8145,0.8015000000000001,0.72125,0.77625,0.6765000000000001,0.497021484375,0.502313232421875,0.5322265625,0.49353485009406267,0.5081109440006909,0.209057202996166,0.206736838448131,0.0025730111092726413
0.6415000000000001,0.64575,0.6725,0.62275,0.69675,0.6095,0.8809999999999999,0.81375,0.8007500000000001,0.72175,0.7755,0.677,0.4966583251953125,0.5020172119140625,0.5325164794921875,0.49320044580449646,0.5082289690380347,0.2120967007087666,0.20568100786637514,0.0011540365138756011
0.6417499999999999,0.6452500000000001,0.6725,0.623,0.6972499999999999,0.61025,0.8795000000000001,0.81375,0.8015000000000001,0.72225,0.7759999999999999,0.679,0.497003173828125,0.5021392822265625,0.5320953369140625,0.4951150743191131,0.5055930761613306,0.21210101006705082,0.2055052819790311,0.0023075779466344955
0.642,0.6447499999999999,0.6725,0.6232500000000001,0.6977500000000001,0.611,0.878,0.81375,0.8022499999999999,0.72275,0.7765000000000001,0.6809999999999999,0.497332763671875,0.502239990234375,0.531451416015625,0.4968198805223291,0.5037112321969942,0.21210101006705082,0.2055052819790311,0.0023075779466344955
0.64225,0.64425,0.6725,0.6235,0.69825,0.61175,0.8765000000000001,0.81375,0.8029999999999999,0.7232500000000001,0.777,0.6829999999999999,0.497479248046875,0.5023193359375,0.531207275390625,0.49764605591192634,0.5029112845963222,0.21039732539091213,0.20462573377975443,0.0011560516803849987
0.6425,0.6435,0.6725,0.62375,0.69875,0.6125,0.8752500000000001,0.81375,0.8035,0.7240000000000001,0.77725,0.6872499999999999,0.49769287109375,0.502459716796875,0.530950927734375,0.49851157299132065,0.5019605272029213,0.21208378101787959,0.20480182848152137,0.0026959435588663565
0.6425,0.64325,0.6725,0.62375,0.69875,0.6125,0.8755,0.81375,0.80325,0.72425,0.777,0.6895,0.497674560546875,0.50257568359375,0.5308837890625,0.49896400233104976,0.5014753131206263,0.21208378101787959,0.20480182848152137,0.0026959435588663565
0.6425,0.643,0.6725,0.62375,0.69875,0.6125,0.87575,0.81375,0.8029999999999999,0.7245,0.7767499999999999,0.69175,0.497491455078125,0.5024810791015625,0.530950927734375,0.4994164316964169,0.5009966559727436,0.21208378101787959,0.20480182848152137,0.0026959435588663565
0.6425,0.64275,0.6725,0.62375,0.69875,0.6125,0.8759999999999999,0.81375,0.8027500000000001,0.7247499999999999,0.7765000000000001,0.6940000000000001,0.4975494384765625,0.502557373046875,0.5308685302734375,0.4998623041081433,0.500583568316402,0.21208378101787959,0.20480182848152137,0.0026959435588663565
0.6425,0.6425,0.6725,0.62375,0.69875,0.6125,0.87625,0.81375,0.8025,0.725,0.77625,0.69625,0.4975830078125,0.5026153564453125,0.530902099609375,0.5000655694787223,0.5003671890513607,0.20735351832002738,0.20445074988592393,0.0010211408606632542
0.6425,0.6425,0.6725,0.62375,0.69875,0.6125,0.87625,0.81375,0.8025,0.725,0.77625,0.69625,0.4975006103515625,0.502557373046875,0.5309539794921875,0.5002885056781758,0.5002557209484291,0.20633604445487055,0.20497736668815314,0.00127885691600928
0.6425,0.6425,0.6725,0.62375,0.69875,0.6125,0.87625,0.81375,0.8025,0.725,0.77625,0.69625,0.4975067138671875,0.5024932861328125,0.5310516357421875,0.5005835683099926,0.5001508097863192,0.21007467686132283,0.20550546965974334,0.0
0.64225,0.642,0.6725,0.62375,0.69825,0.61175,0.87575,0.8127500000000001,0.80175,0.72375,0.77575,0.69525,0.4975677490234375,0.50252685546875,0.5311920166015625,0.5008065045158557,0.5001901514697068,0.209057202996166,0.2055058406565001,0.0023155818930678763
0.642,0.6415000000000001,0.6725,0.62375,0.6977500000000001,0.611,0.8752500000000001,0.81175,0.8009999999999999,0.7225,0.7752500000000001,0.6942499999999999,0.4975494384765625,0.5025604248046875,0.5312530517578125,0.5004196446228013,0.5012786047485549,0.209057202996166,0.2055058406565001,0.0023155818930678763
0.6415000000000001,0.6402500000000001,0.6725,0.6232500000000001,0.69575,0.60925,0.8745,0.8107500000000001,0.7995,0.72175,0.7755,0.6975,0.49749755859375,0.502545166015625,0.5313232421875,0.4999737722110749,0.5024063996595143,0.209057202996166,0.2055058406565001,0.0023155818930678763
0.6409999999999999,0.639,0.6725,0.62275,0.69375,0.6075,0.87375,0.80975,0.7979999999999999,0.721,0.77575,0.70075,0.4974945068359375,0.50257568359375,0.5313873291015625,0.4991803816281388,0.5040128517055374,0.209057202996166,0.2055058406565001,0.0023155818930678763
0.63975,0.636,0.67125,0.62125,0.6915,0.6035,0.873,0.80875,0.7995,0.72275,0.778,0.7095,0.497283935546875,0.5025421142578125,0.5314056396484375,0.4984984591160867,0.5055996329290954,0.209057202996166,0.2055058406565001,0.0023155818930678763
0.63875,0.6335000000000001,0.67,0.61975,0.68975,0.60025,0.87275,0.80875,0.80175,0.72575,0.78075,0.71925,0.4970947265625,0.5025054931640625,0.5313934326171875,0.49778375184864965,0.5071274015955242,0.20769554638594726,0.20620947965238823,0.002054255229774175
0.63775,0.631,0.66875,0.6182500000000001,0.688,0.597,0.8725,0.80875,0.804,0.72875,0.7835,0.7290000000000001,0.4967803955078125,0.5024078369140625,0.5313934326171875,0.4977312962707995,0.5075142614629407,0.20769554638594726,0.20620947965238823,0.002054255229774175
0.637,0.62925,0.6675,0.61725,0.6877500000000001,0.59475,0.8725,0.80875,0.807,0.73125,0.7855,0.7345,0.496533203125,0.5023101806640625,0.53125,0.49788866300435,0.5076585142635714,0.20905074315072247,0.20638464686226327,0.0016712139678170487
0.63625,0.6275,0.66625,0.61625,0.6875,0.5925,0.8725,0.80875,0.81,0.73375,0.7875,0.74,0.4963134765625,0.5022979736328125,0.5310699462890625,0.4984197756980353,0.5072650975066094,0.20837314267234347,0.20585728806652048,0.000643936856258874
0.63625,0.6275,0.66625,0.61625,0.6875,0.5925,0.8725,0.80875,0.81,0.73375,0.7875,0.74,0.4962371826171875,0.5023162841796875,0.5309051513671875,0.49887220505058344,0.5066946430910794,0.20837314267234347,0.20585728806652048,0.000643936856258874
0.63625,0.6275,0.66625,0.61625,0.6875,0.5925,0.8725,0.80875,0.81,0.73375,0.7875,0.74,0.4961273193359375,0.5023681640625,0.53072509765625,0.4993049635870758,0.5059209233562466,0.20837314267234347,0.20585728806652048,0.000643936856258874
0.63525,0.62375,0.6655,0.6154999999999999,0.6865000000000001,0.5915,0.8734999999999999,0.8105,0.812,0.7354999999999999,0.78925,0.743,0.4960968017578125,0.502337646484375,0.530694580078125,0.49948200116872965,0.5044587241044448,0.20837314267234347,0.20585728806652048,0.000643936856258874
0.63425,0.62,0.66475,0.61475,0.6855,0.5905,0.8745,0.8122499999999999,0.8140000000000001,0.73725,0.7909999999999999,0.746,0.4960906982421875,0.50234375,0.5306671142578125,0.49949511506319216,0.503101436078848,0.20837314267234347,0.20585728806652048,0.000643936856258874
0.63325,0.61625,0.664,0.614,0.6845,0.5895,0.8755,0.8140000000000001,0.816,0.7390000000000001,0.7927500000000001,0.7490000000000001,0.49605712890625,0.5022735595703125,0.53067626953125,0.49942298865005774,0.5018490591063992,0.20837314267234347,0.20585728806652048,0.000643936856258874
0.63225,0.6125,0.66325,0.6132500000000001,0.6835,0.5885,0.8765000000000001,0.81575,0.818,0.74075,0.7945,0.752,0.4959381103515625,0.5021728515625,0.5306732177734375,0.4992000524313755,0.5005179988376799,0.20837745203062766,0.20673628195299584,0.0024383782156114997
0.63125,0.60875,0.6625,0.6125,0.6825,0.5875,0.8775,0.8175,0.82,0.7425,0.79625,0.755,0.495855712890625,0.502056884765625,0.530621337890625,0.49905579959869706,0.4990033440208469,0.20905935348332536,0.2069121911563844,0.0020555670731914307
0.631,0.609,0.6622499999999999,0.61175,0.6827500000000001,0.58725,0.87825,0.8170000000000001,0.82075,0.7434999999999999,0.79675,0.75575,0.4958648681640625,0.50208740234375,0.5304656982421875,0.49910825517013774,0.49794767553584096,0.20905935348332536,0.2069121911563844,0.0020555670731914307
0.63075,0.60925,0.662,0.611,0.6829999999999999,0.5870000000000001,0.879,0.8165,0.8215,0.7445,0.7972499999999999,0.7565000000000001,0.49599609375,0.502178955078125,0.5303436279296875,0.4993049635870758,0.4967346402980559,0.20905935348332536,0.2069121911563844,0.0020555670731914307
0.6305,0.6095,0.66175,0.61025,0.68325,0.58675,0.8797499999999999,0.816,0.8222499999999999,0.7454999999999999,0.7977500000000001,0.75725,0.4961456298828125,0.5021942138671875,0.5306549072265625,0.49936397611856675,0.49690512093247846,0.21007467686132283,0.20726345525036025,0.0016678918195707588
0.63025,0.60975,0.6615000000000001,0.6095,0.6835,0.5865,0.8805,0.8155,0.823,0.7465,0.79825,0.758,0.496319580078125,0.5022857666015625,0.53089599609375,0.49942298866287677,0.49748213228883026,0.21007467686132283,0.20726345525036025,0.0016678918195707588
0.63,0.60975,0.6609999999999999,0.60875,0.6829999999999999,0.5865,0.8805,0.81475,0.82175,0.746,0.7977500000000001,0.75775,0.49644775390625,0.5023468017578125,0.5310791015625,0.49929184971825136,0.4985443577531151,0.21007467686132283,0.20726345525036025,0.0016678918195707588
0.63,0.6095,0.6607500000000001,0.60875,0.6822499999999999,0.58675,0.8797499999999999,0.8145,0.81975,0.7445,0.79675,0.7567499999999999,0.4964569091796875,0.5023345947265625,0.5311614990234375,0.4990623565651569,0.49983607632562777,0.20803542396470778,0.2077909995444814,0.0014119194869140043
0.63,0.60925,0.6605,0.60875,0.6815000000000001,0.5870000000000001,0.879,0.8142499999999999,0.8177500000000001,0.743,0.7957500000000001,0.75575,0.4963714599609375,0.502288818359375,0.5312896728515625,0.498688610579384,0.5011343518774193,0.20803542396470778,0.2077909995444814,0.0014119194869140043
0.63,0.609,0.66025,0.60875,0.6807500000000001,0.58725,0.87825,0.8140000000000001,0.81575,0.7415,0.79475,0.7547499999999999,0.4962799072265625,0.5022674560546875,0.5310455322265625,0.4984722313015235,0.5009376434540717,0.21209455022160725,0.2044501933907888,0.0026968891556964575
0.63,0.60875,0.66,0.60875,0.68,0.5875,0.8775,0.81375,0.81375,0.74,0.79375,0.75375,0.4963226318359375,0.502239990234375,0.53089599609375,0.49832142150879477,0.5004983279831671,0.21344543762809828,0.20532863078212898,0.002568377117609096
0.63,0.60875,0.66,0.60875,0.68,0.5875,0.8775,0.81375,0.81375,0.74,0.79375,0.75375,0.4966339111328125,0.50240478515625,0.5309051513671875,0.4981771686825259,0.5001573667207314,0.2110727669981663,0.20568026369052775,0.0020555784171122703
0.63,0.60875,0.66,0.60875,0.68,0.5875,0.8775,0.81375,0.81375,0.74,0.79375,0.75375,0.4970428466796875,0.50252685546875,0.531103515625,0.4977444101780811,0.5003409612688451,0.2110727669981663,0.20568026369052775,0.0020555784171122703
0.63025,0.60975,0.66,0.609,0.68,0.58775,0.8785,0.8142499999999999,0.816,0.741,0.795,0.7552500000000001,0.496905517578125,0.5023101806640625,0.530767822265625,0.49837387711228304,0.499829519384806,0.2110727669981663,0.20568026369052775,0.0020555784171122703
0.6305,0.61075,0.66,0.60925,0.68,0.588,0.8795000000000001,0.81475,0.81825,0.742,0.79625,0.7567499999999999,0.4968597412109375,0.5023834228515625,0.53052978515625,0.49943610260220594,0.4981771687786687,0.2110727669981663,0.20568026369052775,0.0020555784171122703
0.6305,0.611,0.6595,0.609,0.67975,0.588,0.8805,0.81525,0.8192499999999999,0.7425,0.7972499999999999,0.758,0.496807861328125,0.5023162841796875,0.53050537109375,0.49984263333054474,0.49851813003469475,0.2124258090837994,0.2049769956913964,0.0019294486024015228
0.6305,0.61125,0.659,0.60875,0.6795,0.588,0.8815000000000001,0.81575,0.82025,0.743,0.79825,0.75925,0.4965179443359375,0.5020477294921875,0.5304656982421875,0.5005376697242403,0.4985509147708511,0.2124258090837994,0.2049769956913964,0.0019294486024015228
0.6305,0.6114999999999999,0.6585,0.6085,0.67925,0.588,0.8825,0.81625,0.82125,0.7434999999999999,0.79925,0.7605,0.496234130859375,0.501898193359375,0.5304351806640625,0.5016392368590937,0.49813782708246207,0.2124258090837994,0.2049769956913964,0.0019294486024015228
0.63,0.61125,0.6575,0.6082500000000001,0.67825,0.58775,0.8802500000000001,0.81475,0.8165,0.74125,0.797,0.757,0.496490478515625,0.502081298828125,0.530889892578125,0.5017375910739723,0.4986558259137324,0.2147941703554473,0.2046259192781328,0.0029528639191933933
0.6295000000000001,0.611,0.6565000000000001,0.608,0.6772499999999999,0.5875,0.878,0.81325,0.81175,0.7390000000000001,0.79475,0.7535,0.49661865234375,0.5020843505859375,0.5311370849609375,0.5014163006404115,0.5004458724117263,0.21309910020389422,0.20568119336475355,0.0020488004244097802
0.62925,0.6114999999999999,0.6559999999999999,0.6082500000000001,0.6765000000000001,0.5875,0.87575,0.81175,0.80825,0.73725,0.7927500000000001,0.7502500000000001,0.49664306640625,0.5021881103515625,0.5311279296875,0.5016523507535563,0.5002491639947882,0.21309910020389422,0.20568119336475355,0.0020488004244097802
0.629,0.612,0.6555,0.6085,0.6757500000000001,0.5875,0.8734999999999999,0.81025,0.80475,0.7354999999999999,0.7907500000000001,0.747,0.496630859375,0.5022674560546875,0.53104248046875,0.5016261229646313,0.500098354208469,0.21309910020389422,0.20568119336475355,0.0020488004244097802
0.6295000000000001,0.61475,0.6559999999999999,0.60925,0.6755,0.5885,0.871,0.8079999999999999,0.8007500000000001,0.73375,0.78875,0.7440000000000001,0.49666748046875,0.50230712890625,0.5310302734375,0.5013704020097927,0.5001376958918566,0.21309910020389422,0.20568119336475355,0.0020488004244097802
0.63025,0.617,0.657,0.60975,0.6759999999999999,0.5895,0.87075,0.8072499999999999,0.80025,0.73375,0.78875,0.74425,0.4966461181640625,0.5023956298828125,0.531060791015625,0.5010294407409476,0.5003278473615635,0.2134411282698141,0.2049779231832883,0.002051736879347475
0.631,0.61925,0.6579999999999999,0.61025,0.6765000000000001,0.5905,0.8704999999999999,0.8065000000000001,0.79975,0.73375,0.78875,0.7445,0.49664306640625,0.502392578125,0.5311309814453125,0.5006491377951243,0.50057045441553,0.2134411282698141,0.2049779231832883,0.002051736879347475
0.6317499999999999,0.6214999999999999,0.659,0.61075,0.677,0.5915,0.8702500000000001,0.8057500000000001,0.79925,0.73375,0.78875,0.7447499999999999,0.4966217041015625,0.5023895263671875,0.53126220703125,0.5003344043152043,0.5009573142957655,0.2134411282698141,0.2049779231832883,0.002051736879347475
0.6325,0.62375,0.66,0.61125,0.6775,0.5925,0.87,0.805,0.79875,0.73375,0.78875,0.745,0.496624755859375,0.5024169921875,0.53140869140625,0.500026227788925,0.5015998951308395,0.21006821701587927,0.20532974377239932,0.0012855093153024614
0.6325,0.62375,0.66,0.61125,0.6775,0.5925,0.87,0.805,0.79875,0.73375,0.78875,0.745,0.4965240478515625,0.5024169921875,0.531451416015625,0.4998491902136808,0.502085109232363,0.21006821701587927,0.20532974377239932,0.0012855093153024614
0.6325,0.62375,0.66,0.61125,0.6775,0.5925,0.87,0.805,0.79875,0.73375,0.78875,0.745,0.49649658203125,0.5023529052734375,0.5314208984375,0.49965248179674265,0.5025768802811178,0.21006821701587927,0.20532974377239932,0.0012855093153024614
0.6325,0.62375,0.66,0.61125,0.6775,0.5925,0.87,0.805,0.79875,0.73375,0.78875,0.745,0.496466064453125,0.502301025390625,0.5314971923828125,0.4993246344415887,0.5031866763928545,0.21006821701587927,0.20532974377239932,0.0012855093153024614
0.633,0.62525,0.6607500000000001,0.6114999999999999,0.6775,0.59325,0.8732500000000001,0.8055,0.8035,0.73575,0.79,0.7484999999999999,0.49678955078125,0.5021881103515625,0.53167724609375,0.4994098747555952,0.5056061899404218,0.21108999604733752,0.20620892315725306,0.00243836687169066
0.6335000000000001,0.6267499999999999,0.6615000000000001,0.61175,0.6775,0.594,0.8765000000000001,0.8059999999999999,0.80825,0.73775,0.79125,0.752,0.4969696044921875,0.5027801513671875,0.5311737060546875,0.4993836469666701,0.5080847159297468,0.21108999604733752,0.20620892315725306,0.00243836687169066
0.634,0.62825,0.6622499999999999,0.612,0.6775,0.59475,0.8797499999999999,0.8065000000000001,0.813,0.7397499999999999,0.7925,0.7555,0.496820068359375,0.5033294677734375,0.530194091796875,0.4990557995922876,0.5101501542883684,0.21108999604733752,0.20620892315725306,0.00243836687169066
0.6345000000000001,0.62975,0.6629999999999999,0.61225,0.6775,0.5954999999999999,0.883,0.807,0.8177500000000001,0.74175,0.79375,0.759,0.4965057373046875,0.5036102294921875,0.5289886474609375,0.4983410923504886,0.5110943546383951,0.21074581330227554,0.2072630842536035,0.0014136316086809327
0.63575,0.63125,0.66525,0.613,0.67875,0.5965,0.889,0.81,0.8242499999999999,0.7465,0.7975,0.7652500000000001,0.4962005615234375,0.503912353515625,0.527685546875,0.4977640809941368,0.5118484034994866,0.2093970763829438,0.20743954995212718,0.0012824456463953388
0.6365,0.63125,0.66675,0.6135,0.68,0.59675,0.8917499999999999,0.8125,0.826,0.74925,0.8,0.768,0.4955902099609375,0.5040557861328125,0.526153564453125,0.49669529854416355,0.5091075995439964,0.2093970763829438,0.20743954995212718,0.0012824456463953388
0.63725,0.63125,0.66825,0.614,0.68125,0.597,0.8945000000000001,0.815,0.8277500000000001,0.752,0.8025,0.77075,0.495123291015625,0.5032012939453125,0.5255828857421875,0.4955543897131035,0.5051275326194821,0.2093970763829438,0.20743954995212718,0.0012824456463953388
0.638,0.63125,0.66975,0.6145,0.6825,0.5972500000000001,0.89725,0.8175,0.8295,0.7547499999999999,0.805,0.7735,0.4953094482421875,0.503192138671875,0.5268951416015625,0.49570519950583225,0.5028391580421782,0.2093970763829438,0.20743954995212718,0.0012824456463953388
0.638,0.62725,0.67,0.61425,0.6835,0.59675,0.899,0.8195,0.83,0.7567499999999999,0.8072499999999999,0.7759999999999999,0.4955780029296875,0.50322265625,0.5284393310546875,0.4954429215653052,0.5025113106934337,0.2093970763829438,0.20743954995212718,0.0012824456463953388
0.63725,0.6232500000000001,0.66875,0.6135,0.68325,0.596,0.898,0.8190000000000001,0.82875,0.7559999999999999,0.807,0.77575,0.4959381103515625,0.5031585693359375,0.5298126220703125,0.49474788512033346,0.5025768802042035,0.2093970763829438,0.20743954995212718,0.0012824456463953388
0.6365,0.61925,0.6675,0.61275,0.6829999999999999,0.59525,0.897,0.8184999999999999,0.8275,0.7552500000000001,0.80675,0.7755,0.4960723876953125,0.50281982421875,0.5308197021484375,0.4941184181861315,0.5042751295947883,0.20770416091053287,0.2070875460469717,0.002315974068616954
0.63575,0.61525,0.66625,0.612,0.6827500000000001,0.5945,0.8959999999999999,0.818,0.82625,0.7545000000000001,0.8065000000000001,0.7752500000000001,0.4960784912109375,0.503009033203125,0.531512451171875,0.49359386240762987,0.5066159597755804,0.20769554638594726,0.20568063686961838,0.002567151163878205
0.635,0.61125,0.665,0.61125,0.6825,0.59375,0.895,0.8175,0.825,0.75375,0.80625,0.775,0.4957763671875,0.5023681640625,0.5312103271484375,0.4921054353540839,0.5076191727211933,0.20769554638594726,0.20568063686961838,0.002567151163878205
0.635,0.61125,0.665,0.61125,0.6825,0.59375,0.895,0.8175,0.825,0.75375,0.80625,0.775,0.4954376220703125,0.501605224609375,0.5302490234375,0.49190217003478115,0.5075273754471364,0.20769554638594726,0.20568063686961838,0.002567151163878205
0.63325,0.60775,0.6645,0.61,0.6829999999999999,0.5925,0.89275,0.8170000000000001,0.82525,0.753,0.8055,0.77575,0.495330810546875,0.5012451171875,0.530908203125,0.4966625136862263,0.5033178152349276,0.20768908654050372,0.204274655184157,0.0020551748976423536
0.6315,0.60425,0.664,0.60875,0.6835,0.59125,0.8905,0.8165,0.8255,0.75225,0.80475,0.7765000000000001,0.4953948974609375,0.5015380859375,0.5314605712890625,0.5006884793503216,0.5009835419436811,0.20972618475797664,0.2051542055657675,0.0016710997183285797
0.62975,0.60075,0.6635,0.6075,0.684,0.59,0.88825,0.816,0.82575,0.7515000000000001,0.804,0.77725,0.4955718994140625,0.5016143798828125,0.532061767578125,0.5048586978150476,0.4990164577486619,0.20972618475797664,0.2051542055657675,0.0016710997183285797
0.628,0.5972500000000001,0.6629999999999999,0.60625,0.6845,0.58875,0.8859999999999999,0.8155,0.826,0.75075,0.80325,0.778,0.4957366943359375,0.5016754150390625,0.5322479248046875,0.50868139815984,0.4973903348353068,0.20972618475797664,0.2051542055657675,0.0016710997183285797
0.62475,0.59275,0.6609999999999999,0.604,0.6835,0.58575,0.8835,0.8165,0.82475,0.7497499999999999,0.8022499999999999,0.77775,0.4960479736328125,0.502056884765625,0.5334564208984375,0.512051669023894,0.4961772996423885,0.21140618473148332,0.2048029414717917,0.001285636529271895
0.6232500000000001,0.59175,0.6595,0.603,0.682,0.584,0.88325,0.818,0.82325,0.7495,0.802,0.7767499999999999,0.4963134765625,0.5024749755859375,0.533868408203125,0.5109632159245125,0.4998032915574238,0.21140618473148332,0.2055062116532569,0.002319296216863244
0.62175,0.59075,0.6579999999999999,0.602,0.6805,0.58225,0.883,0.8195,0.82175,0.74925,0.80175,0.77575,0.496405029296875,0.5020355224609375,0.5362152099609375,0.5121237955267617,0.5036063210284749,0.2110727669981663,0.20568212085664545,0.0023143842991390955
0.62025,0.58975,0.6565000000000001,0.601,0.679,0.5805,0.88275,0.821,0.82025,0.7490000000000001,0.8015000000000001,0.7747499999999999,0.4967010498046875,0.5019683837890625,0.538226318359375,0.5145695369658064,0.5100190155103905,0.2110727669981663,0.20568212085664545,0.0023143842991390955
0.62075,0.5945,0.65625,0.6025,0.6777500000000001,0.5820000000000001,0.885,0.8225,0.8205,0.7502500000000001,0.8022499999999999,0.77625,0.4956756591796875,0.50103759765625,0.54493408203125,0.5234607575395995,0.5285227197894358,0.20973479928256228,0.20638464686226327,0.0012839106327439452
0.62275,0.60025,0.6575,0.605,0.6779999999999999,0.5852499999999999,0.8875,0.8225,0.8222499999999999,0.7517499999999999,0.80325,0.77875,0.462738037109375,0.508343505859375,0.54378662109375,0.5578519456330125,0.5265753065322532,0.20973479928256228,0.20638464686226327,0.0012839106327439452
0.6265,0.611,0.6605,0.608,0.6807500000000001,0.589,0.8917499999999999,0.82475,0.82575,0.7552500000000001,0.8055,0.7809999999999999,0.444403076171875,0.4955657958984375,0.5396575927734375,0.5322339520505251,0.5039538381357039,0.20973479928256228,0.20638464686226327,0.0012839106327439452
0.63025,0.62175,0.6635,0.611,0.6835,0.59275,0.8959999999999999,0.8270000000000001,0.8292499999999999,0.75875,0.8077500000000001,0.78325,0.427069091796875,0.4868621826171875,0.5348541259765625,0.49615762888401843,0.48391580749949414,0.20973479928256228,0.20638464686226327,0.0012839106327439452
0.634,0.6325,0.6665000000000001,0.614,0.68625,0.5965,0.9002500000000001,0.8292499999999999,0.8327500000000001,0.76225,0.81,0.7855,0.4147369384765625,0.48768310546875,0.5317779541015625,0.4478525972916597,0.4765785834900169,0.20871517493024613,0.20655981407213828,0.0020515942700569017
0.63575,0.6375,0.66825,0.6145,0.68875,0.597,0.902,0.8315,0.8345,0.76425,0.81125,0.78525,0.404541015625,0.4901824951171875,0.524627685546875,0.3938823651374257,0.46041570934048764,0.21007467686132283,0.20743899345699202,0.002181849220553478
0.6375,0.6425,0.67,0.615,0.69125,0.5975,0.90375,0.83375,0.83625,0.76625,0.8125,0.785,0.4285003662109375,0.4864959716796875,0.5260772705078125,0.318097170204936,0.4716412033080795,0.21007467686132283,0.20743899345699202,0.002181849220553478
0.6375,0.6425,0.67,0.615,0.69125,0.5975,0.90375,0.83375,0.83625,0.76625,0.8125,0.785,0.4391387939453125,0.5035125732421875,0.5300537109375,0.3086420520026062,0.5091141565617324,0.212778606353447,0.20515290489478497,0.0023128909529883846
0.6385000000000001,0.64375,0.6707500000000001,0.61625,0.693,0.5982500000000001,0.90325,0.8340000000000001,0.83575,0.76625,0.8127500000000001,0.78425,0.4520843505859375,0.5165313720703125,0.53284912109375,0.31953314101404157,0.5488361435425395,0.212778606353447,0.20515290489478497,0.0023128909529883846
0.6395000000000001,0.645,0.6715000000000001,0.6175,0.69475,0.599,0.90275,0.8342499999999999,0.83525,0.76625,0.813,0.7835,0.4643402099609375,0.5184600830078125,0.5334442138671875,0.3443643021081284,0.5749590213119206,0.212778606353447,0.20515290489478497,0.0023128909529883846
0.6405,0.64625,0.6722499999999999,0.61875,0.6965,0.59975,0.90225,0.8345,0.83475,0.76625,0.81325,0.7827500000000001,0.49345703125,0.521124267578125,0.5262664794921875,0.36528751970399814,0.6043603716457752,0.21142340958867176,0.20585543308273663,0.002568607237146153
0.6415000000000001,0.6475,0.6729999999999999,0.62,0.69825,0.6004999999999999,0.9017499999999999,0.83475,0.8342499999999999,0.76625,0.8134999999999999,0.782,0.5189300537109375,0.5218109130859375,0.5219573974609375,0.3954363622145033,0.6188249965329102,0.21142340958867176,0.20585543308273663,0.002568607237146153
0.64275,0.649,0.6735,0.6214999999999999,0.7,0.6015,0.9017499999999999,0.83475,0.833,0.76625,0.81325,0.782,0.541461181640625,0.5199371337890625,0.5163604736328125,0.4296636277616199,0.6207789666411812,0.21142340958867176,0.20585543308273663,0.002568607237146153
0.643,0.64925,0.67325,0.62175,0.7,0.60175,0.90225,0.8345,0.8322499999999999,0.76625,0.8127500000000001,0.7827500000000001,0.5573699951171875,0.5175811767578125,0.5111236572265625,0.4523572220457228,0.6096124843718425,0.21311201989478126,0.20532807428699384,0.0017969394527778283
0.64325,0.6495000000000001,0.6729999999999999,0.622,0.7,0.602,0.90275,0.8342499999999999,0.8315,0.76625,0.8122499999999999,0.7835,0.56561279296875,0.5146514892578125,0.5075469970703125,0.4684020711579082,0.5906235652926358,0.21311201989478126,0.20532807428699384,0.0017969394527778283
0.6435,0.6497499999999999,0.6727500000000001,0.62225,0.7,0.6022500000000001,0.90325,0.8340000000000001,0.83075,0.76625,0.81175,0.78425,0.5754241943359375,0.5211090087890625,0.5246734619140625,0.5128844019952651,0.5436889386904974,0.21311201989478126,0.20532807428699384,0.0017969394527778283
0.64375,0.65,0.6725,0.6225,0.7,0.6025,0.90375,0.83375,0.83,0.76625,0.81125,0.785,0.5954315185546875,0.5309326171875,0.5216644287109375,0.5549209897527395,0.4876794957358241,0.2114255642678139,0.20568007819214937,0.003341228721145192
0.6447499999999999,0.648,0.67375,0.6214999999999999,0.70075,0.60375,0.9052500000000001,0.83525,0.831,0.76775,0.8127500000000001,0.78625,0.5843170166015625,0.5370147705078125,0.5364654541015625,0.5600157377450271,0.41129105835074425,0.2114255642678139,0.20568007819214937,0.003341228721145192
0.64575,0.6459999999999999,0.675,0.6204999999999999,0.7015,0.605,0.90675,0.83675,0.8320000000000001,0.76925,0.8142499999999999,0.7875,0.5784637451171875,0.534234619140625,0.559259033203125,0.5566192391176862,0.366008779810163,0.2114255642678139,0.20568007819214937,0.003341228721145192
0.6467499999999999,0.644,0.67625,0.6195,0.7022499999999999,0.60625,0.90825,0.83825,0.833,0.77075,0.81575,0.78875,0.5706878662109375,0.5327423095703125,0.57310791015625,0.5553996467916604,0.3320306789372439,0.2114255642678139,0.20568007819214937,0.003341228721145192
0.64775,0.642,0.6775,0.6185,0.703,0.6075,0.90975,0.83975,0.8340000000000001,0.77225,0.8172499999999999,0.79,0.544580078125,0.520501708984375,0.5719879150390625,0.5263326991578106,0.3299717969554062,0.2114255642678139,0.20568007819214937,0.003341228721145192
0.64875,0.64,0.67875,0.6175,0.70375,0.60875,0.91125,0.84125,0.835,0.77375,0.81875,0.79125,0.5082427978515625,0.50015869140625,0.5993377685546875,0.49653137476723896,0.3584223910239358,0.4675137244153387,0.5508992361242248,0.4274577835925131
0.64875,0.64,0.67875,0.6175,0.70375,0.60875,0.91125,0.84125,0.835,0.77375,0.81875,0.79125,0.503125,0.4896636962890625,0.5883087158203125,0.4919415116797117,0.41403186340867204,0.4675137244153387,0.5508992361242248,0.4274577835925131
0.64875,0.64,0.67875,0.6175,0.70375,0.60875,0.91125,0.84125,0.835,0.77375,0.81875,0.79125,0.4975006103515625,0.4913818359375,0.57232666015625,0.496577273301715,0.4439839998481241,0.4675137244153387,0.5508992361242248,0.4274577835925131
0.64575,0.63575,0.6765000000000001,0.6104999999999999,0.70025,0.60125,0.91,0.83825,0.8355,0.7745000000000001,0.818,0.795,0.4968597412109375,0.4928375244140625,0.56376953125,0.5010359975728074,0.46492688944581106,0.4466801066385082,0.5672679665709226,0.5289749379591447
0.64275,0.6315,0.67425,0.6035,0.69675,0.59375,0.90875,0.83525,0.836,0.7752500000000001,0.8172499999999999,0.79875,0.495697021484375,0.494476318359375,0.5555908203125,0.5069503640395084,0.4826437608006083,0.4466801066385082,0.5672679665709226,0.5289749379591447
0.63975,0.62725,0.672,0.5965,0.69325,0.58625,0.9075,0.8322499999999999,0.8365,0.7759999999999999,0.8165,0.8025,0.49537353515625,0.5001708984375,0.5343505859375,0.5037243460017234,0.4863549929335073,0.45096928471766273,0.5514473925616852,0.5683892604660833
0.63575,0.62375,0.66925,0.59275,0.6895,0.57875,0.9045000000000001,0.8277500000000001,0.83525,0.76925,0.8127500000000001,0.79425,0.49639892578125,0.5013641357421875,0.5347503662109375,0.5022687037292005,0.48885318984784987,0.45096928471766273,0.5514473925616852,0.5683892604660833
0.6317499999999999,0.62025,0.6665000000000001,0.589,0.6857500000000001,0.57125,0.9015000000000001,0.82325,0.8340000000000001,0.7625,0.809,0.7859999999999999,0.4963775634765625,0.500732421875,0.5326171875,0.5009769851054117,0.49169890472829747,0.6859919601375639,0.2766232542993122,0.6128095069589009
0.63075,0.621,0.6659999999999999,0.59225,0.6855,0.57125,0.8997499999999999,0.82175,0.8322499999999999,0.755,0.8059999999999999,0.774,0.496551513671875,0.5009613037109375,0.5313018798828125,0.5014556422468849,0.49827552288458543,0.5227300267646781,0.47502120519256663,0.6328719829060919
0.62975,0.62175,0.6655,0.5954999999999999,0.68525,0.57125,0.898,0.82025,0.8305,0.7475,0.8029999999999999,0.762,0.496331787109375,0.500860595703125,0.5310272216796875,0.5033374860573928,0.49727886693107043,0.4411024891201384,0.3360717615098415,0.42915350691158716
0.62875,0.6225,0.665,0.59875,0.685,0.57125,0.89625,0.81875,0.82875,0.74,0.8,0.75,0.49661865234375,0.5013031005859375,0.531463623046875,0.5045570782552281,0.4967084125283594,0.4411024891201384,0.3360717615098415,0.42915350691158716
0.63,0.625,0.6657500000000001,0.60125,0.68675,0.5725,0.895,0.818,0.82825,0.74,0.7985,0.74625,0.496929931640625,0.501812744140625,0.5317840576171875,0.505448823104319,0.4961707428682143,0.4411024891201384,0.3360717615098415,0.42915350691158716
0.63125,0.6275,0.6665000000000001,0.60375,0.6884999999999999,0.57375,0.89375,0.8172499999999999,0.8277500000000001,0.74,0.797,0.7425,0.49708251953125,0.50186767578125,0.53170166015625,0.5058225690900919,0.49584945251156776,0.4130758523058666,0.33114108149002686,0.3789780947697448
0.6335000000000001,0.632,0.6679999999999999,0.6075,0.69125,0.57825,0.89225,0.8175,0.8255,0.74,0.7945,0.73425,0.4974365234375,0.5022247314453125,0.5311309814453125,0.5077568686322785,0.49215789118831493,0.4130758523058666,0.33114108149002686,0.3789780947697448
0.63575,0.6365,0.6695,0.61125,0.6940000000000001,0.58275,0.89075,0.8177500000000001,0.82325,0.74,0.792,0.726,0.49779052734375,0.502581787109375,0.530560302734375,0.5096911681744651,0.4884663298650621,0.4130758523058666,0.33114108149002686,0.3789780947697448
0.638,0.6409999999999999,0.6709999999999999,0.615,0.69675,0.58725,0.88925,0.818,0.821,0.74,0.7895,0.7177500000000001,0.498541259765625,0.503094482421875,0.5298065185546875,0.5110943548434999,0.4858894495583062,0.4130758523058666,0.33114108149002686,0.3789780947697448
0.639,0.643,0.67175,0.61625,0.6977500000000001,0.5905,0.889,0.8190000000000001,0.8192499999999999,0.74,0.7885,0.71325,0.4990478515625,0.503369140625,0.5294830322265625,0.5118615175862347,0.484381351682295,0.3674919759895467,0.33640780164278666,0.30719773811163914
0.64,0.645,0.6725,0.6175,0.69875,0.59375,0.88875,0.82,0.8175,0.74,0.7875,0.70875,0.49940185546875,0.5036285400390625,0.5294219970703125,0.5121893649349791,0.48341092341515274,0.3242506089871524,0.3395632272641239,0.21072236343382464
0.6409999999999999,0.6455,0.6727500000000001,0.6185,0.6990000000000001,0.595,0.8909999999999999,0.82075,0.8170000000000001,0.74,0.78675,0.706,0.4993316650390625,0.5033905029296875,0.52969970703125,0.5107599504001051,0.48598780367063243,0.3242506089871524,0.3395632272641239,0.21072236343382464
0.642,0.6459999999999999,0.6729999999999999,0.6195,0.6992499999999999,0.59625,0.89325,0.8215,0.8165,0.74,0.7859999999999999,0.70325,0.4993682861328125,0.5032440185546875,0.5299346923828125,0.5093764345022594,0.48869582294765185,0.3242506089871524,0.3395632272641239,0.21072236343382464
0.643,0.6465000000000001,0.67325,0.6204999999999999,0.6995,0.5975,0.8955,0.8222499999999999,0.816,0.74,0.78525,0.7005,0.49896240234375,0.5031494140625,0.5302642822265625,0.507678185188589,0.49064979326102753,0.3242506089871524,0.3395632272641239,0.21072236343382464
0.64425,0.64725,0.67375,0.622,0.69975,0.5995,0.897,0.8234999999999999,0.81525,0.7397499999999999,0.78325,0.696,0.49871826171875,0.5031890869140625,0.530523681640625,0.5057176580177154,0.49270211773800565,0.32322882995569424,0.3474782510243929,0.21364416040523487
0.6455,0.648,0.67425,0.6235,0.7,0.6015,0.8985,0.82475,0.8145,0.7395,0.78125,0.6915,0.4986114501953125,0.5032135009765625,0.5306793212890625,0.5038423711480292,0.49452494910675593,0.32322882995569424,0.3474782510243929,0.21364416040523487
0.64575,0.64825,0.6745,0.624,0.7,0.6022500000000001,0.89775,0.82525,0.8142499999999999,0.73925,0.78,0.68975,0.4986114501953125,0.5032623291015625,0.5309295654296875,0.5021375648294417,0.49618385677549587,0.32322882995569424,0.3474782510243929,0.21364416040523487
0.6459999999999999,0.6485,0.67475,0.6245,0.7,0.603,0.897,0.82575,0.8140000000000001,0.7390000000000001,0.77875,0.688,0.498699951171875,0.503253173828125,0.53109130859375,0.5004589862933699,0.4976919545745928,0.35500270531703837,0.32392691206763624,0.24055385695241108
0.64625,0.64875,0.675,0.625,0.7,0.60375,0.89625,0.82625,0.81375,0.73875,0.7775,0.68625,0.4987945556640625,0.503173828125,0.5314483642578125,0.499757392952443,0.498800078650268,0.35394862705836255,0.3202430124779521,0.2661611077104692
0.64625,0.64875,0.675,0.625,0.7,0.60375,0.89625,0.82625,0.81375,0.73875,0.7775,0.68625,0.4989105224609375,0.5031463623046875,0.5315185546875,0.49977706379413683,0.4989967870672061,0.3478373240219782,0.30441518439095305,0.2645044163921688
0.64625,0.64875,0.675,0.625,0.7,0.60375,0.89625,0.82625,0.81375,0.73875,0.7775,0.68625,0.4990386962890625,0.503179931640625,0.531463623046875,0.4999344305276873,0.49906891348034055,0.3478373240219782,0.30441518439095305,0.2645044163921688
0.6465000000000001,0.649,0.67475,0.625,0.70025,0.604,0.89625,0.82575,0.8140000000000001,0.738,0.7775,0.68475,0.49903564453125,0.503277587890625,0.531427001953125,0.4998098485367027,0.4997508359923927,0.3488655670908627,0.29931193632089453,0.2536178151862401
0.6467499999999999,0.64925,0.6745,0.625,0.7005,0.60425,0.89625,0.82525,0.8142499999999999,0.73725,0.7775,0.68325,0.4988555908203125,0.5034515380859375,0.531390380859375,0.4996328109614584,0.5001180250437534,0.3488655670908627,0.29931193632089453,0.2536178151862401
0.64725,0.6495000000000001,0.67475,0.625,0.70075,0.605,0.8959999999999999,0.82525,0.81325,0.736,0.77775,0.682,0.498687744140625,0.5034576416015625,0.531463623046875,0.49887876205550036,0.5011146810229065,0.3488655670908627,0.29931193632089453,0.2536178151862401
0.64775,0.6497499999999999,0.675,0.625,0.701,0.60575,0.89575,0.82525,0.8122499999999999,0.7347499999999999,0.778,0.6807500000000001,0.49847412109375,0.5034698486328125,0.5316253662109375,0.4982361812396549,0.501809717429421,0.3488655670908627,0.29931193632089453,0.2536178151862401
0.6485,0.6502500000000001,0.6755,0.62525,0.70125,0.607,0.895,0.82575,0.8115000000000001,0.7334999999999999,0.778,0.6809999999999999,0.49830322265625,0.503521728515625,0.5317230224609375,0.4975018031497527,0.5023670579248505,0.3488655670908627,0.29931193632089453,0.2536178151862401
0.649,0.6505,0.67625,0.6255,0.70125,0.608,0.89425,0.82675,0.8105,0.733,0.778,0.6827500000000001,0.4983245849609375,0.503509521484375,0.5316314697265625,0.4968723361899126,0.5024063996210572,0.28536518577343833,0.28609751850526366,0.17201027095122653
0.6495000000000001,0.65075,0.677,0.62575,0.70125,0.609,0.8935,0.8277500000000001,0.8095,0.7325,0.778,0.6845,0.498291015625,0.5034698486328125,0.5316986083984375,0.4961182872903641,0.5028063733893456,0.28536518577343833,0.28609751850526366,0.17201027095122653
0.6497499999999999,0.6509999999999999,0.6772499999999999,0.626,0.70125,0.6095,0.893,0.82825,0.80975,0.7325,0.77775,0.6859999999999999,0.4983367919921875,0.5035552978515625,0.53160400390625,0.4958101107128087,0.5024981968630664,0.28536518577343833,0.28609751850526366,0.17201027095122653
0.65,0.65125,0.6775,0.62625,0.70125,0.61,0.8925,0.82875,0.81,0.7325,0.7775,0.6875,0.49840087890625,0.5036102294921875,0.53148193359375,0.4953839090979095,0.5024588551668597,0.2742332707368301,0.28697186838527783,0.15727663098917394
0.65,0.65125,0.6772499999999999,0.6255,0.7015,0.61,0.8935,0.8295,0.8122499999999999,0.7345,0.779,0.6955,0.4982940673828125,0.50316162109375,0.531512451171875,0.4938299125335937,0.5061766444072281,0.2742332707368301,0.28697186838527783,0.15727663098917394
0.65,0.65125,0.677,0.62475,0.70175,0.61,0.8945000000000001,0.83025,0.8145,0.7365,0.7805,0.7034999999999999,0.4971221923828125,0.5018707275390625,0.5328460693359375,0.49322667341395493,0.5087797524772709,0.2742332707368301,0.28697186838527783,0.15727663098917394
0.65,0.65125,0.67675,0.624,0.7020000000000001,0.61,0.8955,0.831,0.81675,0.7384999999999999,0.782,0.7115,0.496746826171875,0.50133056640625,0.533013916015625,0.4938430264152372,0.5095928139083103,0.21713454175816171,0.28308272684274793,0.08949463693981081
0.65,0.6509999999999999,0.677,0.6235,0.7022499999999999,0.61025,0.8965000000000001,0.831,0.8205,0.74125,0.78475,0.7252500000000001,0.496661376953125,0.5009857177734375,0.53270263671875,0.49470854347540294,0.5105566851833547,0.188064591696959,0.26284787192877695,0.05760978436119666
0.65,0.65075,0.6772499999999999,0.623,0.7025,0.6104999999999999,0.8975,0.831,0.8242499999999999,0.7440000000000001,0.7875,0.7390000000000001,0.4962982177734375,0.5007476806640625,0.5326385498046875,0.4954363646501216,0.511579568977071,0.25564132412847135,0.25353058081528196,0.09092324657540214
0.65,0.6505,0.6777500000000001,0.6232500000000001,0.7025,0.61075,0.8975,0.83025,0.82575,0.7447499999999999,0.78875,0.7447499999999999,0.4961669921875,0.501171875,0.53267822265625,0.49729853774071664,0.5091403844275718,0.2917840587774001,0.26637108627610323,0.12534769188277142
0.64925,0.64925,0.6777500000000001,0.62275,0.70175,0.6075,0.897,0.82825,0.8272499999999999,0.7454999999999999,0.7909999999999999,0.75225,0.4967132568359375,0.5023834228515625,0.5314697265625,0.49729853774071664,0.5071011738322372,0.2917840587774001,0.26637108627610323,0.12534769188277142
0.6485,0.648,0.6777500000000001,0.62225,0.701,0.60425,0.8965000000000001,0.82625,0.82875,0.74625,0.79325,0.7597499999999999,0.496673583984375,0.5023162841796875,0.53118896484375,0.4973116516479982,0.5054357092739516,0.2917840587774001,0.26637108627610323,0.12534769188277142
0.6452500000000001,0.642,0.67525,0.61775,0.6977500000000001,0.597,0.895,0.8240000000000001,0.8270000000000001,0.7434999999999999,0.79325,0.75825,0.496527099609375,0.502435302734375,0.5321441650390625,0.4968002097511401,0.5049832798957654,0.2917840587774001,0.26637108627610323,0.12534769188277142
0.642,0.636,0.6727500000000001,0.6132500000000001,0.6945,0.58975,0.8935,0.82175,0.82525,0.74075,0.79325,0.7567499999999999,0.49666748046875,0.502386474609375,0.5332855224609375,0.4962035275979611,0.5055078355717147,0.2917840587774001,0.26637108627610323,0.12534769188277142
0.63875,0.63,0.67025,0.60875,0.69125,0.5825,0.892,0.8195,0.8234999999999999,0.738,0.79325,0.7552500000000001,0.4970947265625,0.5038299560546875,0.5349639892578125,0.49522654249254944,0.5077437548019111,0.2917840587774001,0.26637108627610323,0.12534769188277142
0.63625,0.625,0.66825,0.605,0.68875,0.57875,0.8909999999999999,0.8184999999999999,0.82175,0.7352500000000001,0.7922499999999999,0.752,0.4978179931640625,0.5045745849609375,0.5375244140625,0.4926234343712304,0.5140187529625323,0.7454612092590049,0.3796866858189741,0.7009083587083539
0.63375,0.62,0.66625,0.60125,0.68625,0.575,0.89,0.8175,0.82,0.7325,0.79125,0.74875,0.499053955078125,0.50723876953125,0.546148681640625,0.4896203525264895,0.5266080915952952,0.7454612092590049,0.3796866858189741,0.7009083587083539
0.63375,0.62,0.66625,0.60125,0.68625,0.575,0.89,0.8175,0.82,0.7325,0.79125,0.74875,0.4996917724609375,0.5072265625,0.5534332275390625,0.4887220508134912,0.5454855430394653,0.7454612092590049,0.3796866858189741,0.7009083587083539
0.63375,0.62,0.66625,0.60125,0.68625,0.575,0.89,0.8175,0.82,0.7325,0.79125,0.74875,0.4998992919921875,0.5077667236328125,0.5583251953125,0.4887810633321631,0.5662645096806465,0.7454612092590049,0.3796866858189741,0.7009083587083539
0.635,0.616,0.667,0.599,0.68675,0.575,0.89225,0.8175,0.82325,0.7365,0.79425,0.7525,0.498638916015625,0.5154296875,0.5716827392578125,0.48969903591890285,0.6169956094796044,0.7454612092590049,0.3796866858189741,0.7009083587083539
0.63625,0.612,0.6677500000000001,0.59675,0.6872499999999999,0.575,0.8945000000000001,0.8175,0.8265,0.7404999999999999,0.7972499999999999,0.75625,0.5000762939453125,0.5248748779296875,0.5848968505859375,0.4989836731471055,0.6640482639905525,0.788676724303677,0.42558546834510547,0.7619041114042124
