C0,C1,C2,C3,C4,C5,C6,C7,C8,C9,C10,C11,Ax,Ay,Az,Gr,Gp,Fx_norm,Fy_norm,Fz_norm
0.65875,0.66125,0.6908333333333333,0.62625,0.7275,0.6025,0.905,0.8475,0.8225,0.78875,0.78,0.72,0.5115842758278908,0.502814209101046,0.5530009380697003,0.49945428867468417,0.4983949666902475,0.035587268440461874,0.579099482967809,0.004215519767639796
0.65875,0.66125,0.690625,0.62625,0.7275,0.6025,0.905,0.8475,0.8225,0.78875,0.78,0.72,0.5116617108267403,0.5028606701003557,0.5529323527850051,0.4994462635081354,0.4981943375500627,0.035587268440461874,0.579099482967809,0.004215519767639796
0.65875,0.66125,0.6905,0.62625,0.7275,0.6025,0.905,0.8475,0.8225,0.78875,0.78,0.72,0.5117506504539904,0.5028513779004938,0.5528646524717251,0.4994992296073572,0.4981510016648199,0.035587268440461874,0.579099482967809,0.004215519767639796
0.65875,0.66125,0.69025,0.62625,0.7275,0.6022500000000001,0.905,0.8475,0.8227500000000001,0.78875,0.78,0.72,0.5116869325120799,0.5028248287580311,0.5529177507566505,0.4997303544039616,0.4984206472608583,0.035587268440461874,0.579099482967809,0.004215519767639796
0.65875,0.66125,0.69,0.62625,0.7275,0.602,0.905,0.8475,0.823,0.78875,0.78,0.72,0.5117453406254978,0.5028460680720013,0.552981468698561,0.5,0.49834360566199015,0.035587268440461874,0.579099482967809,0.004215519767639796
0.65875,0.66125,0.69,0.62625,0.7275,0.602,0.905,0.84725,0.82325,0.78875,0.78,0.72,0.5117984389104232,0.5028407582435087,0.5527690755588595,0.5001540831977362,0.4989214176723284,0.035587268440461874,0.579099482967809,0.004215519767639796
0.65875,0.66125,0.69,0.62625,0.7275,0.602,0.905,0.847,0.8234999999999999,0.78875,0.78,0.72,0.5117187914830351,0.5027717304731057,0.5526681888175012,0.5001540831977362,0.4996725732424652,0.035587268440461874,0.579099482967809,0.004215519767639796
0.65875,0.66125,0.69,0.62625,0.7275,0.602,0.905,0.84675,0.82375,0.78875,0.78,0.72,0.5116710030266023,0.502803589444061,0.552843413157755,0.5002889059957555,0.5000963020174125,0.035587268440461874,0.579099482967809,0.004215519767639796
0.65875,0.66125,0.69,0.62625,0.7275,0.6022500000000001,0.905,0.8465,0.82375,0.78875,0.78,0.72,0.5116869325120799,0.5026920830457177,0.5528965114426804,0.5001733435974532,0.49996147921939327,0.035587268440461874,0.579099482967809,0.004215519767639796
0.65875,0.66125,0.69025,0.62625,0.7275,0.6025,0.905,0.84625,0.82325,0.78875,0.7802500000000001,0.72,0.5115860457707216,0.5025487176764191,0.5529230605851431,0.5000577811991511,0.5003081663954725,0.035587268440461874,0.579099482967809,0.004215519767639796
0.65875,0.66125,0.6905,0.62625,0.7275,0.6025,0.905,0.84625,0.8227500000000001,0.78875,0.7805,0.72,0.511559496628259,0.5025805766473743,0.5531354537248447,0.500038520799434,0.49984591682109114,0.035587268440461874,0.579099482967809,0.004215519767639796
0.65875,0.66125,0.69075,0.62625,0.7275,0.6025,0.905,0.84625,0.8222499999999999,0.78875,0.78075,0.72,0.5116444538841396,0.5025911963043593,0.5531885520097701,0.5002889059957555,0.49924884444869055,0.03253403092162355,0.584529710055504,0.0052739801554486775
0.65875,0.66125,0.691,0.62625,0.7275,0.6025,0.905,0.84625,0.82175,0.78875,0.7809999999999999,0.72,0.511649763712632,0.5025009292199862,0.5528593426432327,0.5003274267951895,0.4990177196520862,0.034572748658396234,0.5752225143172942,0.0037935061584692936
0.65875,0.66125,0.691,0.62625,0.7275,0.6025,0.905,0.846,0.8215,0.7885,0.78125,0.7197499999999999,0.5117506504539904,0.5027186321881804,0.5527637657303669,0.5002118643968874,0.4990947612509543,0.034572748658396234,0.5752225143172942,0.0037935061584692936
0.65875,0.66125,0.69075,0.62625,0.7275,0.6025,0.9047499999999999,0.84575,0.82175,0.78875,0.7815000000000001,0.7195,0.511846227366856,0.502941644984867,0.5526522593320236,0.5002118643968874,0.49998073965676504,0.034057426761683815,0.5783232726404831,0.0040001285182493535
0.65875,0.66125,0.6905,0.62625,0.7275,0.6025,0.9045000000000001,0.8454999999999999,0.8220000000000001,0.789,0.78175,0.71925,0.5118143683959008,0.5030531513832103,0.5527159772739341,0.5001926039971702,0.5012519260004342,0.034057426761683815,0.5783232726404831,0.0040001285182493535
0.65875,0.66125,0.69025,0.62625,0.7275,0.6025,0.90425,0.8452500000000001,0.8222499999999999,0.78925,0.782,0.7190000000000001,0.5116869325120799,0.503079700525673,0.5530451866404715,0.499980739600283,0.5023690291463673,0.032031606978723204,0.577546234160313,0.003372639321799741
0.65875,0.66125,0.69,0.62625,0.7275,0.6025,0.904,0.845,0.8225,0.7895,0.7822499999999999,0.71875,0.5115329474857963,0.5030850103541655,0.5535549301757553,0.4998073960028297,0.5031201847353314,0.035574370486649756,0.577546234160313,0.004211356571526853
0.65875,0.66125,0.69,0.62625,0.7275,0.6025,0.90375,0.845,0.8225,0.79,0.7825,0.71875,0.5113205543460946,0.5029841236128073,0.5537991822864121,0.49974961480367863,0.5032357471336336,0.035574370486649756,0.577546234160313,0.004211356571526853
0.65875,0.66125,0.69,0.62625,0.7275,0.6025,0.9035,0.8447499999999999,0.82175,0.789,0.7825,0.71875,0.5111718791483035,0.502872617214464,0.5538788297138002,0.4995955316059424,0.5022919875286718,0.035574370486649756,0.577546234160313,0.004211356571526853
0.65875,0.66125,0.69,0.62625,0.7275,0.6025,0.90325,0.8445,0.821,0.7879999999999999,0.7825,0.71875,0.5111718791483035,0.5027717304731057,0.5537673233154569,0.49951849000707427,0.5011941447636284,0.03812196428141719,0.5806510947289854,0.0016860359576218295
0.65875,0.66125,0.69,0.62625,0.7275,0.6025,0.903,0.84425,0.82025,0.787,0.7825,0.71875,0.5111612594913184,0.5027664206446132,0.553639887431636,0.4996918336045275,0.5004237287937746,0.03812196428141719,0.5806510947289854,0.0016860359576218295
0.65875,0.66125,0.69025,0.62625,0.7275,0.6025,0.903,0.84425,0.82,0.7859999999999999,0.7825,0.71875,0.5111824988052885,0.5028195189295386,0.5534646630913822,0.49984591680226376,0.4999036980014149,0.03812196428141719,0.5806510947289854,0.0016860359576218295
0.65875,0.66125,0.6905,0.62625,0.7275,0.6025,0.903,0.84425,0.81975,0.785,0.7825,0.71875,0.5112780757181543,0.5029310253278819,0.5532575797801731,0.5,0.49955701080650833,0.03812196428141719,0.5806510947289854,0.0016860359576218295
0.65875,0.66125,0.69075,0.62625,0.7275,0.6025,0.90325,0.8445,0.82025,0.785,0.7825,0.71875,0.5112993150321244,0.503079700525673,0.5532416502946955,0.5000577811991511,0.4993066255913596,0.035580822601744076,0.5837518530521741,0.0037959365720315642
0.65875,0.66125,0.691,0.62625,0.7275,0.6025,0.9035,0.8447499999999999,0.82075,0.785,0.7825,0.71875,0.5112993150321244,0.5032018265810014,0.5532204109807253,0.500019260399717,0.49922958399249145,0.03507839865884378,0.5822043435364813,0.003585151016138552
0.65875,0.66125,0.69125,0.62625,0.7275,0.6025,0.90375,0.845,0.82125,0.785,0.7825,0.71875,0.5113258641745871,0.5032336855519567,0.5530823554399193,0.4999229584011319,0.4989791987961701,0.03660178822252752,0.5814256680099915,0.0035838155510592375
0.65875,0.66125,0.69125,0.62625,0.7275,0.6025,0.90375,0.845,0.82125,0.785,0.7825,0.71875,0.5113311740030797,0.5032549248659268,0.5530823554399193,0.49971109400424457,0.4986517720009806,0.03660178822252752,0.5814256680099915,0.0035838155510592375
0.65875,0.66125,0.69125,0.62625,0.7275,0.6025,0.90375,0.845,0.82125,0.785,0.7825,0.71875,0.5112993150321244,0.5031752774385387,0.5531248340678596,0.49953775040679127,0.4984206471855489,0.03508161844001437,0.5798748844016592,0.005057478011723596
0.65875,0.66125,0.691,0.62625,0.7275,0.6025,0.90375,0.845,0.82125,0.785,0.7827500000000001,0.7184999999999999,0.5114108214304678,0.5031593479530612,0.5528858917856954,0.4993836672090551,0.49861325120154654,0.03508161844001437,0.5798748844016592,0.005057478011723596
0.65875,0.66125,0.69075,0.62625,0.7275,0.6025,0.90375,0.845,0.82125,0.785,0.7829999999999999,0.71825,0.5113417936600648,0.5030584612117028,0.5530345669834864,0.4989791988149974,0.4978428352128654,0.03508161844001437,0.5798748844016592,0.005057478011723596
0.65875,0.66125,0.6905,0.62625,0.7275,0.6022500000000001,0.9035,0.845,0.82075,0.78525,0.7829999999999999,0.718,0.5112993150321244,0.503069080868688,0.5531513832103223,0.49851694922178874,0.49707241922418416,0.03508161844001437,0.5798748844016592,0.005057478011723596
0.65875,0.66125,0.69025,0.62625,0.7275,0.602,0.90325,0.845,0.82025,0.7855,0.7829999999999999,0.7177500000000001,0.5112780757181543,0.5030531513832103,0.5531460733818298,0.49851694922178874,0.4961864407995461,0.03508161844001437,0.5798748844016592,0.005057478011723596
0.65875,0.66125,0.69,0.62625,0.7275,0.60175,0.903,0.845,0.81975,0.7857500000000001,0.7829999999999999,0.7175,0.5113205543460946,0.5030266022407476,0.5532257208092178,0.49851694922178874,0.4951656395580615,0.03304612676078885,0.5829789168174876,0.004421690328288548
0.65875,0.66125,0.69,0.62625,0.7275,0.60175,0.90275,0.8452500000000001,0.8190000000000001,0.78675,0.7827500000000001,0.7177500000000001,0.511304624860617,0.502952264641852,0.5533637763500239,0.4988251156172612,0.4933551619658334,0.03304612676078885,0.5829789168174876,0.004421690328288548
0.65875,0.66125,0.69,0.62625,0.7275,0.60175,0.9025,0.8454999999999999,0.81825,0.7877500000000001,0.7825,0.718,0.5114161312589603,0.5029575744703446,0.553236340466203,0.499345146409621,0.49237288156143755,0.03304612676078885,0.5829789168174876,0.004421690328288548
0.65875,0.66125,0.69,0.62625,0.7275,0.602,0.9025,0.84575,0.818,0.7885,0.7825,0.71825,0.511559496628259,0.5030584612117028,0.5530080178410237,0.49994221880084894,0.49162172602895543,0.034057426761683815,0.5806519132521452,0.004426071451041303
0.65875,0.66125,0.69,0.62625,0.7275,0.6022500000000001,0.90275,0.84575,0.8172499999999999,0.789,0.7825,0.7190000000000001,0.511639144055647,0.5029628842988372,0.5530133276695163,0.500635593190662,0.4901001545831016,0.03710099238425723,0.5759962690751406,0.004635730166747974
0.65875,0.66125,0.69,0.62625,0.7275,0.6025,0.903,0.84575,0.8165,0.7895,0.7825,0.7197499999999999,0.5117187914830351,0.5029575744703446,0.5529230605851431,0.5016949151562713,0.4885400623754684,0.03710099238425723,0.5759962690751406,0.004635730166747974
0.65875,0.66125,0.69,0.62625,0.7275,0.6025,0.90325,0.8454999999999999,0.816,0.78925,0.7825,0.7202500000000001,0.5117453406254978,0.5028779270429565,0.5530186374980088,0.502619414361516,0.48734591755535783,0.03710099238425723,0.5759962690751406,0.004635730166747974
0.65875,0.66125,0.69,0.62625,0.7275,0.6025,0.9035,0.8452500000000001,0.8155,0.789,0.7825,0.72075,0.5118780863378113,0.5028779270429565,0.5531354537248447,0.5038135591251445,0.48592064786333355,0.03506872048620226,0.5814248494868317,0.004213982321772361
0.65875,0.66125,0.69,0.62625,0.7275,0.6025,0.90375,0.845,0.815,0.78875,0.7825,0.72125,0.5119418042797218,0.5028407582435087,0.5532841289226358,0.5047573187112789,0.48407164949049875,0.033558222599954106,0.584529710055504,0.0012746994249810196
0.65875,0.66125,0.69,0.62625,0.7275,0.6025,0.90375,0.845,0.815,0.78875,0.7825,0.72125,0.5120957893060054,0.5030743906971805,0.553119524239367,0.5051617871241639,0.48310862954230194,0.033558222599954106,0.584529710055504,0.0012746994249810196
0.65875,0.66125,0.69,0.62625,0.7275,0.6025,0.90375,0.845,0.815,0.78875,0.7825,0.72125,0.5123028726172144,0.5032124462379866,0.5529336802421282,0.5052003079612526,0.4823189531727311,0.033558222599954106,0.584529710055504,0.0012746994249810196
0.65875,0.66125,0.69025,0.62625,0.72725,0.6025,0.9035,0.845,0.81575,0.7895,0.7827500000000001,0.722,0.512642701640737,0.5031434184675835,0.5528062443583073,0.5060285051679123,0.4818567037301412,0.03303645486452389,0.5822010694438419,0.0046385698571703785
0.65875,0.66125,0.6905,0.62625,0.727,0.6025,0.90325,0.845,0.8165,0.79025,0.7829999999999999,0.72275,0.5127754473530505,0.5030319120692401,0.5526310200180534,0.5072419103689124,0.4816640999212444,0.03406065281923097,0.5822035250133214,0.004429117108714744
0.65875,0.66125,0.69075,0.62625,0.72675,0.6025,0.903,0.845,0.8172499999999999,0.7909999999999999,0.78325,0.7234999999999999,0.5130887272341104,0.5029894334412999,0.5524451760208146,0.5090523878293491,0.48176040197631165,0.03406065281923097,0.5822035250133214,0.004429117108714744
0.65875,0.66125,0.69075,0.62625,0.7265,0.6022500000000001,0.9025,0.8447499999999999,0.81825,0.7915000000000001,0.78325,0.7252500000000001,0.5133064302023045,0.5029947432697924,0.552381458078904,0.5112865941965246,0.48193374555493756,0.03406065281923097,0.5822035250133214,0.004429117108714744
0.65875,0.66125,0.69075,0.62625,0.72625,0.602,0.902,0.8445,0.8192499999999999,0.792,0.78325,0.727,0.5134338660861254,0.5032124462379866,0.552232782881113,0.513771185741194,0.4823574742357481,0.03609614449845654,0.5814264865331514,0.004007103499544241
0.65875,0.66125,0.6905,0.62625,0.72625,0.60175,0.9017499999999999,0.84425,0.8195,0.79175,0.7829999999999999,0.728,0.5134126267721553,0.5036637816598524,0.5520256995699039,0.5154468405354029,0.4827812029165586,0.03609614449845654,0.5814264865331514,0.004007103499544241
0.65875,0.66125,0.69025,0.62625,0.72625,0.6015,0.9015000000000001,0.8440000000000001,0.81975,0.7915000000000001,0.7827500000000001,0.7290000000000001,0.5133860776296926,0.5041788350236287,0.5518451654011576,0.5163520791903118,0.48312789007381046,0.03609614449845654,0.5814264865331514,0.004007103499544241
0.65875,0.66125,0.69,0.62625,0.72625,0.60125,0.90125,0.84375,0.82,0.79125,0.7825,0.73,0.5133595284872299,0.5045823819890618,0.5517814474592471,0.5165061625386669,0.48335901464448655,0.03609291844090938,0.5829780982943278,0.005904958835777196
0.65875,0.66125,0.69,0.62625,0.72625,0.601,0.90125,0.8434999999999999,0.82,0.7922499999999999,0.7829999999999999,0.7304999999999999,0.5135613019699463,0.5046514097594648,0.5516009132905008,0.5152542365758873,0.4846109404566473,0.03609291844090938,0.5829780982943278,0.005904958835777196
0.65875,0.66125,0.69,0.62625,0.72625,0.60075,0.90125,0.84325,0.82,0.79325,0.7835,0.731,0.513646259225827,0.5044655657622259,0.5518451654011576,0.5136171025434577,0.4856510020790216,0.03609291844090938,0.5829780982943278,0.005904958835777196
0.65875,0.66125,0.69,0.62625,0.72625,0.6004999999999999,0.90125,0.843,0.82,0.79425,0.784,0.7315,0.5136993575107524,0.5043062709074497,0.5523124303085011,0.5119029269874695,0.48626733486996654,0.03609291844090938,0.5829780982943278,0.005904958835777196
0.65875,0.66125,0.69,0.62625,0.72625,0.60025,0.90125,0.8427500000000001,0.82,0.79525,0.7845,0.732,0.5138586523655286,0.5040460893113152,0.5527796952158446,0.5103043140180569,0.48692218842269086,0.034057426761683815,0.5752175935486509,0.0044256342689407095
0.65875,0.66125,0.69,0.62625,0.72625,0.6,0.90125,0.8425,0.82,0.79625,0.785,0.7325,0.513842722880051,0.5038177666861361,0.553177932352785,0.5090138671428792,0.4872688755799427,0.033548550703689145,0.5860796751406765,0.0031585994833403155
0.6585,0.66125,0.69,0.62625,0.72625,0.59975,0.9009999999999999,0.8422499999999999,0.82025,0.7959999999999999,0.7845,0.73275,0.5140020177348271,0.5038336961716137,0.5528009345298147,0.5071841291321066,0.4864791992103718,0.034063872600401564,0.5829756427248481,0.003372838644945904
0.65825,0.66125,0.69,0.62625,0.72625,0.5995,0.90075,0.8420000000000001,0.8205,0.7957500000000001,0.784,0.733,0.5142675091594542,0.504152285881166,0.5522168533956353,0.5054314328143391,0.4867681052249546,0.034063872600401564,0.5829756427248481,0.003372838644945904
0.6579999999999999,0.66125,0.69,0.62625,0.72625,0.59925,0.9005,0.84175,0.82075,0.7955,0.7835,0.7332500000000001,0.5145489300695587,0.5045717623320767,0.5515743641480381,0.5040254235785139,0.487692604411372,0.034063872600401564,0.5829756427248481,0.003372838644945904
0.6579999999999999,0.66125,0.69,0.62625,0.72625,0.59925,0.9,0.8415,0.821,0.7955,0.78375,0.73375,0.5148303509796633,0.5049912387829874,0.5509318749004407,0.5026194143426886,0.4886171035977894,0.03558404238291471,0.5806519132521452,0.004423668942719502
0.6579999999999999,0.66125,0.69,0.62625,0.72625,0.59925,0.8995000000000001,0.84125,0.82125,0.7955,0.784,0.73425,0.5150692932618276,0.505283279350077,0.5506292146763659,0.5011171032212424,0.48967642575167225,0.03456952260084907,0.5806510947289854,0.005063852365938028
0.65825,0.66125,0.69,0.62625,0.72625,0.5995,0.89925,0.84125,0.82125,0.7957500000000001,0.78475,0.7345,0.5149471672064992,0.5053947857484203,0.5514097594647693,0.5014060092169978,0.49029275854261717,0.03456952260084907,0.5806510947289854,0.005063852365938028
0.6585,0.66125,0.69,0.62625,0.72625,0.59975,0.899,0.84125,0.82125,0.7959999999999999,0.7855,0.7347499999999999,0.5150161949769022,0.5057611639144055,0.5515796739765305,0.5022342064236575,0.48788520867212526,0.03456952260084907,0.5806510947289854,0.005063852365938028
0.6585,0.66125,0.69,0.626,0.72625,0.6,0.89825,0.841,0.821,0.7959999999999999,0.78625,0.7347499999999999,0.5152338979450963,0.5062124993362714,0.551239844953008,0.5013674884175638,0.4857087836735471,0.03456952260084907,0.5806510947289854,0.005063852365938028
0.65825,0.66125,0.69,0.62575,0.72625,0.6,0.89775,0.84075,0.82075,0.7957500000000001,0.78625,0.7345,0.515446291084798,0.5062921467636595,0.5509955928423512,0.5005392912109041,0.4839753475860503,0.03457919449711403,0.5798740658784994,0.005477967463236409
0.6579999999999999,0.66125,0.69,0.6255,0.72625,0.6,0.89725,0.8405,0.8205,0.7955,0.78625,0.73425,0.5157701906228429,0.5063133860776297,0.5504168215366644,0.4997303544416163,0.48274268185354163,0.03457919449711403,0.5798740658784994,0.005477967463236409
0.6577500000000001,0.66125,0.69,0.62525,0.72625,0.6,0.8967499999999999,0.84025,0.82025,0.79525,0.78625,0.7340000000000001,0.5161790474167685,0.5064992300748686,0.5496999946901715,0.4986132512580286,0.48229969264122263,0.039645353845100935,0.5822018879670018,0.005055153903839279
0.6575,0.66125,0.69,0.625,0.72625,0.6,0.89625,0.84,0.82,0.795,0.78625,0.73375,0.5163330324430521,0.5064195826474804,0.5495141506929326,0.49739984605702836,0.48439907611624206,0.039645353845100935,0.5822018879670018,0.005055153903839279
0.6575,0.66125,0.69,0.625,0.72625,0.6,0.89625,0.84,0.82,0.795,0.78625,0.73375,0.5163595815855148,0.5061169224234057,0.5497584028035895,0.4981510016459925,0.485805085126139,0.03456307676213132,0.5829780982943278,0.0035807698933857973
0.6575,0.6609999999999999,0.69,0.625,0.72625,0.6,0.89625,0.84,0.8205,0.79475,0.7857500000000001,0.73425,0.5163967503849626,0.5049222110125843,0.5503000053098285,0.5009630199670241,0.486421417917084,0.037104218441804386,0.5845288915323442,0.0044284553558694645
0.6575,0.6607500000000001,0.69,0.625,0.72625,0.6,0.89625,0.84,0.821,0.7945,0.78525,0.7347499999999999,0.5164604683268731,0.5036159932034195,0.5510327616417989,0.5050654852385429,0.48599768923627346,0.037104218441804386,0.5845288915323442,0.0044284553558694645
0.6575,0.6605,0.69,0.625,0.72625,0.6,0.89625,0.84,0.8215,0.79425,0.78475,0.7352500000000001,0.5164604683268731,0.5023044655657622,0.5515690543195455,0.5092835127953996,0.48503466928807665,0.037104218441804386,0.5845288915323442,0.0044284553558694645
0.6572499999999999,0.66025,0.68975,0.625,0.72625,0.59975,0.8965000000000001,0.83975,0.8222499999999999,0.79325,0.784,0.7375,0.5165507354112462,0.5009663887856423,0.5519726012849785,0.5139445295645755,0.48299306680510745,0.03559049449800904,0.5783216355941634,0.0029569495716466453
0.657,0.66,0.6895,0.625,0.72625,0.5995,0.8967499999999999,0.8395,0.823,0.7922499999999999,0.78325,0.7397499999999999,0.5168587054638135,0.5001911538257314,0.5519885307704561,0.5263097063523545,0.48110554751987444,0.03559049449800904,0.5783216355941634,0.0029569495716466453
0.657,0.65975,0.6892499999999999,0.6255,0.726,0.5995,0.89625,0.8384999999999999,0.82325,0.79125,0.7835,0.7432500000000001,0.5172781819147242,0.500738066160463,0.5516168427759783,0.5377118631354547,0.4797573196526465,0.03559049449800904,0.5783216355941634,0.0029569495716466453
0.657,0.6595,0.6890000000000001,0.626,0.72575,0.5995,0.89575,0.8375,0.8234999999999999,0.79025,0.78375,0.74675,0.5176870387086497,0.5015876387192694,0.5511867466680826,0.5486325091913625,0.47894838275156715,0.03559049449800904,0.5783216355941634,0.0029569495716466453
0.657,0.65925,0.68875,0.6265,0.7254999999999999,0.5995,0.8952500000000001,0.8365,0.82375,0.78925,0.784,0.7502500000000001,0.5181277544735305,0.5024425211065683,0.5511495778686348,0.5604776553374006,0.47810092508870844,0.034050974646589446,0.5837559552976576,0.003162086309577274
0.6572499999999999,0.659,0.68875,0.627,0.7252500000000001,0.59975,0.8945000000000001,0.83575,0.82375,0.789,0.7845,0.752,0.5188552009770084,0.5025168587054638,0.551643391918441,0.573035435425738,0.4770993840774947,0.03609291844090938,0.582976461248008,0.003155098040072642
0.6575,0.65875,0.68875,0.6275,0.725,0.6,0.89375,0.835,0.82375,0.78875,0.785,0.75375,0.5196304359369193,0.5011575426113737,0.5525142037912175,0.5762326619670384,0.4741718031698874,0.03609291844090938,0.582976461248008,0.003155098040072642
0.6575,0.65875,0.68875,0.6275,0.725,0.6,0.89375,0.835,0.82375,0.78875,0.785,0.75375,0.5203738119258748,0.4996548611479849,0.5532788190941432,0.5769452962105752,0.46999229614888177,0.03609291844090938,0.582976461248008,0.003155098040072642
0.6575,0.65875,0.68875,0.6275,0.7247499999999999,0.5995,0.8945000000000001,0.8340000000000001,0.82375,0.78825,0.785,0.75425,0.5214145383104126,0.49870440184782033,0.5540434343970689,0.5804892099091274,0.4634630211531473,0.03609291844090938,0.582976461248008,0.003155098040072642
0.6575,0.65875,0.68875,0.6275,0.7245,0.599,0.8952500000000001,0.833,0.82375,0.7877500000000001,0.785,0.7547499999999999,0.5218180852758456,0.49746721180905856,0.554446981362502,0.5821070837112862,0.45633667389797633,0.035587268440461874,0.5759970875983005,0.003160326950607102
0.6575,0.65875,0.68875,0.6275,0.72425,0.5985,0.8959999999999999,0.8320000000000001,0.82375,0.7872499999999999,0.785,0.7552500000000001,0.5217384378484575,0.49690436998884935,0.5545691074178304,0.5825885939866222,0.44955701380005725,0.035587268440461874,0.5759970875983005,0.003160326950607102
0.6575,0.65875,0.68875,0.6275,0.7240000000000001,0.598,0.8967499999999999,0.831,0.82375,0.78675,0.785,0.75575,0.5214570169383529,0.497796421175596,0.5548399086709499,0.5864599337084425,0.44424114385470415,0.035587268440461874,0.5759970875983005,0.003160326950607102
0.6575,0.65875,0.68875,0.6275,0.72375,0.5975,0.8975,0.83,0.82375,0.78625,0.785,0.75625,0.5212233844846812,0.4990920193277757,0.5559443529973982,0.5948382088844375,0.43861710721264097,0.03203483303627037,0.577546234160313,0.004427375024417242
0.6575,0.65875,0.68875,0.6275,0.72375,0.59775,0.89825,0.8305,0.8234999999999999,0.7872499999999999,0.78525,0.75925,0.5205224871236659,0.4995592842351192,0.5575532310306377,0.6010400590618544,0.43362866389303123,0.03203483303627037,0.577546234160313,0.004427375024417242
0.6575,0.65875,0.68875,0.6275,0.72375,0.598,0.899,0.831,0.82325,0.78825,0.7855,0.76225,0.5201614187861732,0.4998566346307014,0.5589762650666383,0.6059514602554302,0.42763867895973245,0.03508161844001437,0.5798732377256554,0.0023287800188581146
0.6575,0.65875,0.68875,0.6275,0.72375,0.5982500000000001,0.8997499999999999,0.8315,0.823,0.78925,0.7857500000000001,0.7652500000000001,0.5197844209632029,0.49988318377316415,0.5598045983114746,0.6071070849162367,0.4196841330670232,0.03508161844001437,0.5798732377256554,0.0023287800188581146
0.6575,0.6585,0.6892499999999999,0.62775,0.7245,0.599,0.905,0.8355,0.8265,0.79525,0.7905,0.77625,0.5132745712313492,0.4996336218340148,0.5600594700791164,0.5268104803221941,0.4173536250213276,0.03508161844001437,0.5798732377256554,0.0023287800188581146
0.6575,0.65825,0.68975,0.628,0.7252500000000001,0.59975,0.91025,0.8395,0.83,0.80125,0.79525,0.7872499999999999,0.5064355121329581,0.5035151064620613,0.5586629851855786,0.4447033978158585,0.41621726149450494,0.03508161844001437,0.5798732377256554,0.0023287800188581146
0.6575,0.6579999999999999,0.69025,0.62825,0.726,0.60025,0.91475,0.843,0.83375,0.80625,0.79975,0.79525,0.4995539744066267,0.5086762597568099,0.5554664684330696,0.3729006279720104,0.42024268426344263,0.03508161844001437,0.5798732377256554,0.0023287800188581146
0.6575,0.6577500000000001,0.69075,0.6285000000000001,0.72675,0.60075,0.91925,0.8465,0.8375,0.81125,0.80425,0.80325,0.49294323793341477,0.514315297615887,0.552508893962725,0.30340910744977523,0.42621340806275765,0.03456629654330191,0.5853051018596701,0.0040047009912224305
0.6575,0.6575,0.69125,0.62875,0.7275,0.60125,0.92375,0.85,0.84125,0.81625,0.80875,0.81125,0.4883767854298306,0.5193543248553072,0.5492645887537833,0.25469955522866583,0.44387519511161216,0.03305257887588317,0.5814248494868317,0.0050645127899623275
0.6575,0.6575,0.69125,0.62875,0.7275,0.60125,0.92375,0.85,0.84125,0.81625,0.80875,0.81125,0.4898741570647268,0.5240960016991452,0.5463972813678118,0.2850732031536929,0.45629815253372175,0.03253403092162355,0.5790986644446492,0.003800728300465431
0.6575,0.6575,0.69125,0.62875,0.7275,0.60125,0.92375,0.85,0.84125,0.81625,0.80875,0.81125,0.4925343811394892,0.523878298730951,0.5446981362501991,0.3163520894323911,0.4697996929424602,0.03558404238291471,0.5829772797711679,0.003375023226627902
0.6575,0.6577500000000001,0.69125,0.6285000000000001,0.72775,0.6015,0.924,0.85075,0.8422499999999999,0.8172499999999999,0.8095,0.81125,0.49384059894865395,0.5282164286093559,0.539000690277704,0.3385785897644755,0.4677773509909995,0.03558404238291471,0.5829772797711679,0.003375023226627902
0.6575,0.6579999999999999,0.69125,0.62825,0.728,0.60175,0.92425,0.8515,0.84325,0.81825,0.81025,0.81125,0.4955450538947592,0.5268571125152658,0.5361068337492699,0.31172959319906646,0.4703775052728634,0.03558404238291471,0.5829772797711679,0.003375023226627902
0.6577500000000001,0.6585,0.6915,0.628,0.7282500000000001,0.602,0.92425,0.85275,0.843,0.8184999999999999,0.8105,0.812,0.49947432697923855,0.5250836297987574,0.537179419104763,0.33416795998021953,0.46899075649323735,0.03558404238291471,0.5829772797711679,0.003375023226627902
0.6579999999999999,0.659,0.69175,0.62775,0.7284999999999999,0.6022500000000001,0.92425,0.8540000000000001,0.8427500000000001,0.81875,0.8107500000000001,0.8127500000000001,0.5013168374661499,0.5239685658153241,0.538607762969256,0.35747304465450214,0.46504237449476427,0.03558404238291471,0.5829772797711679,0.003375023226627902
0.65825,0.6595,0.6922499999999999,0.6275,0.72875,0.6022500000000001,0.92325,0.8547499999999999,0.8405,0.8177500000000001,0.80975,0.81125,0.5021929591674189,0.5233632453671746,0.5397865448945999,0.3785246622041726,0.4601887536907634,0.036083246544644426,0.5814264865331514,0.004425177154525498
0.6585,0.65975,0.6927500000000001,0.6275,0.72875,0.602,0.922,0.8547499999999999,0.8372499999999999,0.81575,0.8079999999999999,0.80975,0.5056337280305846,0.5189613975468592,0.5458397493760951,0.40254238006766035,0.46814329898099744,0.0325437028178885,0.5845305285786639,0.003580598475480094
0.65875,0.66,0.69325,0.6275,0.72875,0.60175,0.9207500000000001,0.8547499999999999,0.8340000000000001,0.81375,0.80625,0.80825,0.5091913131205862,0.5212605532841289,0.5485105931078427,0.47844761330029195,0.4729776592534898,0.035587268440461874,0.5798724192024955,0.0029504170877362556
0.65875,0.66,0.6934999999999999,0.6275,0.72875,0.6015,0.91975,0.85425,0.8320000000000001,0.8125,0.805,0.8059999999999999,0.5085488238729889,0.5250995592842351,0.5471884458132003,0.489946071686603,0.4747303555712574,0.035587268440461874,0.5798724192024955,0.0029504170877362556
0.65875,0.66,0.69375,0.6275,0.72875,0.60125,0.91875,0.85375,0.83,0.81125,0.80375,0.80375,0.5099559284235119,0.5278500504433706,0.5452822173843784,0.5025231126076865,0.48181818266712423,0.035587268440461874,0.5798724192024955,0.0029504170877362556
0.65875,0.65975,0.69375,0.62725,0.7284999999999999,0.60125,0.91875,0.8532500000000001,0.83,0.8095,0.8035,0.802,0.511904635480274,0.5286252854032815,0.5448202623055275,0.5035246530164249,0.48674884499468374,0.035587268440461874,0.5798724192024955,0.0029504170877362556
0.65875,0.6595,0.69375,0.627,0.7282500000000001,0.60125,0.91875,0.85275,0.83,0.8077500000000001,0.80325,0.80025,0.5124993362714384,0.527892529071311,0.5447724738490947,0.498170261857436,0.4905431436448018,0.035587268440461874,0.5798724192024955,0.0029504170877362556
0.65875,0.65925,0.69375,0.6267499999999999,0.728,0.60125,0.91875,0.85225,0.83,0.8059999999999999,0.8029999999999999,0.7985,0.5125099559284235,0.5265810014336537,0.5446237986513036,0.4888289676369571,0.49171802793340386,0.035587268440461874,0.5798724192024955,0.0029504170877362556
0.65875,0.659,0.69375,0.6265,0.72775,0.60125,0.91875,0.85175,0.83,0.80425,0.8027500000000001,0.79675,0.5129188127223491,0.5250146020283545,0.5447777836775872,0.4756548544564372,0.4896764254504346,0.033555002818783514,0.5822002412909979,0.00442932174714481
0.65875,0.65875,0.69375,0.62625,0.7275,0.60125,0.91875,0.85125,0.83,0.8025,0.8025,0.795,0.5139436096214093,0.5235278500504433,0.5444379546540646,0.4580315886212185,0.4846879818295872,0.035587268440461874,0.5783216355941634,0.003580314107791564
0.6585,0.65875,0.69375,0.626,0.72725,0.601,0.9175,0.85125,0.83025,0.80175,0.8025,0.794,0.5147878723517231,0.5231455423989805,0.5414538310412573,0.4482665666236419,0.4826078585848386,0.037097766326710066,0.5806502762058254,0.004006708839714821
0.65825,0.65875,0.69375,0.62575,0.727,0.60075,0.91625,0.85125,0.8305,0.8009999999999999,0.8025,0.7929999999999999,0.5164339191844104,0.5216853395635321,0.5380820899484947,0.43628659796199487,0.4817026197793109,0.037097766326710066,0.5806502762058254,0.004006708839714821
0.6577500000000001,0.659,0.6934999999999999,0.6255,0.7265,0.60025,0.91325,0.8490000000000001,0.82975,0.7965000000000001,0.79925,0.7825,0.5186852864652471,0.5163808208994849,0.5390325492486593,0.41581279214025235,0.481086286988366,0.037097766326710066,0.5806502762058254,0.004006708839714821
0.6575,0.65925,0.693,0.6255,0.726,0.59975,0.90925,0.8454999999999999,0.82825,0.7907500000000001,0.79175,0.7605,0.5196410555939043,0.5080231508522275,0.5428715552487655,0.40545069728076405,0.498979199059753,0.037097766326710066,0.5806502762058254,0.004006708839714821
0.6572499999999999,0.6595,0.6925,0.6255,0.7254999999999999,0.59925,0.9052500000000001,0.8420000000000001,0.82675,0.785,0.78425,0.7384999999999999,0.5200180534168747,0.5000159294854776,0.5474326979238571,0.39759245464807247,0.5170454547097659,0.037097766326710066,0.5806502762058254,0.004006708839714821
0.6572499999999999,0.65975,0.6920000000000001,0.62575,0.7252500000000001,0.599,0.9025,0.8384999999999999,0.825,0.78,0.7767499999999999,0.7175,0.5199490256464716,0.493851218605639,0.5524770349917698,0.40096302416552354,0.534842063822373,0.034050974646589446,0.5783224541173232,0.0014806839506933448
0.6572499999999999,0.66,0.6915,0.626,0.725,0.59875,0.8997499999999999,0.835,0.82325,0.775,0.76925,0.6965,0.5192746774279191,0.4907821377369511,0.556443476875697,0.41055470318694953,0.5532550054246872,0.034050974646589446,0.5783224541173232,0.0014806839506933448
0.6575,0.66,0.69125,0.62625,0.725,0.59875,0.89875,0.83375,0.8225,0.77375,0.765,0.685,0.5181755429299634,0.49200870811872777,0.5566717995008761,0.43220339359853166,0.5740177159054431,0.03508161844001437,0.5814264865331514,0.004004277097331582
0.6575,0.66,0.69125,0.62625,0.725,0.59875,0.89875,0.83375,0.8225,0.77375,0.765,0.685,0.5176445600807094,0.49580523549089367,0.5551425688950247,0.44701464051024353,0.5785439088787502,0.03508161844001437,0.5814264865331514,0.004004277097331582
0.6575,0.66,0.69125,0.62625,0.725,0.59875,0.89875,0.83375,0.8225,0.77375,0.765,0.685,0.5172091541443211,0.4988159082461637,0.5533903254924866,0.46334745916904685,0.5834745712063097,0.03508161844001437,0.5814264865331514,0.004004277097331582
0.6575,0.66,0.69125,0.62625,0.725,0.59875,0.89875,0.83375,0.8225,0.77375,0.765,0.685,0.516736579408485,0.5005893909626719,0.5522009239101577,0.47401772057462643,0.5888674838801721,0.036598568441356887,0.5853034648133504,0.004633984095987548
0.6575,0.65975,0.69125,0.6265,0.725,0.599,0.90075,0.8334999999999999,0.8222499999999999,0.7715000000000001,0.765,0.6815000000000001,0.515446291084798,0.5008973610152392,0.5537460840014867,0.4824922966007382,0.5916024612801202,0.036598568441356887,0.5853034648133504,0.004633984095987548
0.6575,0.6595,0.69125,0.6267499999999999,0.725,0.59925,0.90275,0.83325,0.8220000000000001,0.76925,0.765,0.6779999999999999,0.5140498061912601,0.5005840811341794,0.5549036266128604,0.48805855217544175,0.5912365141938352,0.036598568441356887,0.5853034648133504,0.004633984095987548
0.6575,0.65925,0.69125,0.627,0.725,0.5995,0.9047499999999999,0.833,0.82175,0.767,0.765,0.6745,0.5131205862050656,0.5009239101577019,0.5551107099240694,0.49144838252563894,0.5884052359437703,0.036598568441356887,0.5853034648133504,0.004633984095987548
0.6575,0.659,0.69125,0.62725,0.725,0.59975,0.90675,0.8327500000000001,0.8215,0.7647499999999999,0.765,0.6709999999999999,0.5119152551372591,0.502214198481389,0.5558169171135773,0.4925847460524616,0.5842064677887808,0.036598568441356887,0.5853034648133504,0.004633984095987548
0.6575,0.6585,0.691,0.62775,0.725,0.60025,0.909,0.83175,0.82175,0.762,0.764,0.667,0.5107311633834227,0.5034460786916582,0.5567673764137419,0.4909861329324302,0.5777927547771469,0.034063872600401564,0.5728914085064684,0.0021014267230556804
0.6575,0.65825,0.69075,0.628,0.725,0.6004999999999999,0.90925,0.831,0.8222499999999999,0.7615000000000001,0.763,0.6665000000000001,0.5104709817872882,0.5038177666861361,0.5563478999628312,0.48834745819002456,0.572842832520554,0.027979967412801943,0.5759962690751406,0.0
0.6575,0.6579999999999999,0.6905,0.62825,0.725,0.60075,0.9095,0.83025,0.8227500000000001,0.7609999999999999,0.762,0.6659999999999999,0.5102692083045718,0.5038496256570912,0.5562417033929804,0.4857087835229283,0.5681818152242124,0.027979967412801943,0.5759962690751406,0.0
0.6575,0.6577500000000001,0.69025,0.6285000000000001,0.725,0.601,0.90975,0.8295,0.82325,0.7605,0.7609999999999999,0.6655,0.5100515053363777,0.5033823607497477,0.5565125046460999,0.48310862954230194,0.5636363611169217,0.027979967412801943,0.5759962690751406,0.0
0.6575,0.6575,0.69025,0.6285000000000001,0.725,0.6015,0.9105,0.82875,0.82375,0.7597499999999999,0.7605,0.6659999999999999,0.5098444220251686,0.5026602240747624,0.5564381670472044,0.48004622611908576,0.5542372862056302,0.031026759092922518,0.5790970273983294,0.0021117078109349945
0.6575,0.6575,0.6905,0.62825,0.725,0.60175,0.9109999999999999,0.82875,0.82375,0.7595000000000001,0.7609999999999999,0.667,0.5096373387139596,0.5022248181383742,0.5562417033929804,0.4778505405889991,0.5449730335087098,0.031026759092922518,0.5790970273983294,0.0021117078109349945
0.6575,0.6575,0.69075,0.628,0.725,0.602,0.9115000000000001,0.82875,0.82375,0.75925,0.7615000000000001,0.6679999999999999,0.509424945574258,0.5017203844315828,0.5557319598576966,0.47542373048823633,0.534976885434269,0.0325437028178885,0.5783216355941634,0.0004300729083805376
0.6575,0.6575,0.691,0.62775,0.725,0.6022500000000001,0.912,0.82875,0.82375,0.759,0.762,0.669,0.5093134391759147,0.5013062178091647,0.555254075293368,0.4737288151625189,0.5262519249084479,0.02999933508066823,0.5713422619444558,0.0016872930222636593
0.6575,0.6575,0.69125,0.6275,0.725,0.6025,0.9125,0.82875,0.82375,0.75875,0.7625,0.67,0.5092656507194817,0.5011044443264483,0.5549036266128604,0.4730161803165068,0.5186633270057366,0.02999933508066823,0.5713422619444558,0.0016872930222636593
0.6575,0.6575,0.69125,0.6275,0.725,0.6025,0.9125,0.82875,0.82375,0.75875,0.7625,0.67,0.5093346784898848,0.5010247968990602,0.554919556098338,0.47367103356799345,0.51677580817236,0.02999933508066823,0.5713422619444558,0.0016872930222636593
0.6575,0.6575,0.69125,0.6275,0.725,0.6025,0.9125,0.82875,0.82375,0.75875,0.7625,0.67,0.5093612276323475,0.5007433759889556,0.5549461052408007,0.4745184912308521,0.5149268097995252,0.02999933508066823,0.5713422619444558,0.0016872930222636593
0.6575,0.6575,0.69125,0.62725,0.7254999999999999,0.603,0.9129999999999999,0.8295,0.82475,0.7595000000000001,0.76375,0.6715000000000001,0.5096001699145117,0.5001646046832687,0.5545213189613976,0.47702234285517364,0.5142141751041318,0.02999933508066823,0.5713422619444558,0.0016872930222636593
0.6575,0.6575,0.69125,0.627,0.726,0.6035,0.9135,0.83025,0.82575,0.7602500000000001,0.765,0.6729999999999999,0.5096532681994371,0.49967079063346254,0.5543514044496363,0.47962249683579994,0.5138097066535922,0.0315259569782757,0.5783216355941634,0.0008415994624206908
0.6575,0.6575,0.69125,0.6267499999999999,0.7265,0.604,0.914,0.831,0.82675,0.7609999999999999,0.76625,0.6745,0.5093983964317953,0.49909732915626825,0.5544788403334572,0.4824152549265607,0.5133667174412732,0.0315259569782757,0.5783216355941634,0.0008415994624206908
0.6575,0.6575,0.69125,0.6265,0.727,0.6045,0.9145,0.83175,0.8277500000000001,0.7617499999999999,0.7675,0.6759999999999999,0.5091806934636012,0.49835926299580524,0.5542611373652631,0.4854776586510145,0.5132896759177145,0.0315259569782757,0.5783216355941634,0.0008415994624206908
0.6575,0.6575,0.69125,0.62625,0.728,0.6054999999999999,0.9155,0.8334999999999999,0.82875,0.7647499999999999,0.7702500000000001,0.68025,0.5093028195189295,0.4979557160303722,0.5536982955450539,0.4885785828360101,0.5146186435546715,0.02999933508066823,0.5744446573139643,0.0006332124283865641
0.6575,0.6575,0.69125,0.62625,0.7284999999999999,0.606,0.9159999999999999,0.8345,0.82875,0.767,0.7717499999999999,0.6829999999999999,0.5092178622630489,0.49791854723092444,0.5539000690277704,0.490254237630219,0.5155431428917078,0.03355177676123635,0.5798757029248192,0.0010632999537978258
0.6575,0.6575,0.69125,0.62625,0.7290000000000001,0.6065,0.9165000000000001,0.8355,0.82875,0.76925,0.77325,0.6857500000000001,0.509286890033452,0.4979026177454468,0.553512451547815,0.49216101729634165,0.5171417561623579,0.03355177676123635,0.5798757029248192,0.0010632999537978258
0.6575,0.6575,0.69125,0.62625,0.7295,0.607,0.917,0.8365,0.82875,0.7715000000000001,0.7747499999999999,0.6884999999999999,0.5100408856793925,0.4987681197897308,0.5534009451494717,0.4930855164827591,0.5298536205027632,0.03355177676123635,0.5798757029248192,0.0010632999537978258
0.6575,0.6577500000000001,0.6915,0.62625,0.73,0.6072500000000001,0.91875,0.8395,0.83,0.778,0.7795000000000001,0.7005,0.5161365687888281,0.49699463707322256,0.5593745022035789,0.486960709335089,0.5401386732362176,0.03355177676123635,0.5798757029248192,0.0010632999537978258
0.6575,0.6579999999999999,0.69175,0.62625,0.73,0.607,0.92,0.8415,0.83125,0.7822499999999999,0.7827500000000001,0.70975,0.5247597302607125,0.49072903945202573,0.5676525248234482,0.47082049418394484,0.5444144820110528,0.03000256113821539,0.5736717210792777,0.001907264717553029
0.6575,0.65825,0.6920000000000001,0.62625,0.73,0.60675,0.92125,0.8434999999999999,0.8325,0.7865000000000001,0.7859999999999999,0.7190000000000001,0.533382891732597,0.48446344183082884,0.5759305474433176,0.45468027903280067,0.548690290785888,0.03000256113821539,0.5736717210792777,0.001907264717553029
0.6575,0.6585,0.6922499999999999,0.62625,0.73,0.6065,0.9225,0.8454999999999999,0.83375,0.7907500000000001,0.78925,0.7282500000000001,0.5392290129028833,0.48312536505070885,0.5824722561461265,0.4457241933338282,0.5480161767016553,0.034057426761683815,0.5775503364057964,0.0010571435262231965
0.6575,0.65875,0.6925,0.62625,0.73,0.60625,0.92375,0.8475,0.835,0.795,0.7925,0.7375,0.54315297615887,0.4800031858970955,0.5881431529761588,0.45469953956430914,0.5395993816675937,0.030504985081115734,0.5721192907949415,6.7703428648203995e-06
0.6575,0.65875,0.6925,0.62625,0.73,0.60625,0.92375,0.8475,0.835,0.795,0.7925,0.7375,0.5421812775447353,0.47559602824828756,0.5873201295598152,0.4712634833962639,0.5375770397161329,0.030504985081115734,0.5721192907949415,6.7703428648203995e-06
0.6575,0.65875,0.6925,0.62625,0.73,0.60525,0.925,0.8482500000000001,0.8375,0.8007500000000001,0.7957500000000001,0.7502500000000001,0.5391706047894653,0.4753570859661233,0.585764349811501,0.4862095537272975,0.5428351280669605,0.029496911137767888,0.5752225143172942,0.0004248772183704411
0.6575,0.65875,0.6925,0.62625,0.73,0.60425,0.92625,0.8490000000000001,0.84,0.8065000000000001,0.799,0.763,0.5373811925874794,0.4820209207242606,0.5783730685498858,0.49580123274872345,0.544010012054325,0.029496911137767888,0.5752225143172942,0.0004248772183704411
0.6575,0.65875,0.6927500000000001,0.626,0.7297499999999999,0.6032500000000001,0.9277500000000001,0.8497499999999999,0.8422499999999999,0.8127500000000001,0.8025,0.77625,0.537731641267987,0.4843200764615303,0.5703446078691659,0.4992488443922085,0.543278116978042,0.029496911137767888,0.5752225143172942,0.0004248772183704411
0.6575,0.65875,0.693,0.62575,0.7295,0.6022500000000001,0.92925,0.8504999999999999,0.8445,0.8190000000000001,0.8059999999999999,0.7895,0.5398874316359582,0.48865289651144267,0.5621568523336696,0.4834938374613331,0.5310477632142103,0.029496911137767888,0.5752225143172942,0.0004248772183704411
0.6575,0.65875,0.693,0.6255,0.72925,0.60125,0.92975,0.851,0.84675,0.825,0.80975,0.80375,0.5414113524133171,0.4972282695268943,0.5548399086709499,0.4664291234250092,0.5110362083412459,0.0325404767603413,0.5752225143172942,0.00043159573721725784
0.6575,0.65875,0.693,0.62525,0.7290000000000001,0.60125,0.929,0.85075,0.8465,0.82525,0.81025,0.80525,0.5422503053151383,0.5060319651675251,0.5463176339404238,0.46078582655267514,0.48944530072913967,0.0325404767603413,0.5752225143172942,0.00043159573721725784
0.6575,0.65875,0.693,0.625,0.72875,0.60125,0.92825,0.8504999999999999,0.84625,0.8255,0.8107500000000001,0.80675,0.5412414379015558,0.5081824457070037,0.5441246747730049,0.46057396251350746,0.4677773509909995,0.030501765299945097,0.5744462943602839,0.0010545549829649682
0.6575,0.65875,0.6927500000000001,0.625,0.72875,0.60125,0.9272499999999999,0.8502500000000001,0.84625,0.82525,0.8109999999999999,0.8077500000000001,0.5402219508309881,0.509770084426273,0.5449211490468858,0.45943759838420956,0.4476502332302217,0.032546928875435664,0.5783249096868027,0.002745786630596894
0.6575,0.65875,0.6925,0.625,0.72875,0.60125,0.92625,0.85,0.84625,0.825,0.81125,0.80875,0.537582966070196,0.5102692083045718,0.5457070036637817,0.4603428373403561,0.4322419128541229,0.032546928875435664,0.5783249096868027,0.002745786630596894
0.6575,0.65875,0.6925,0.625,0.72875,0.60125,0.92625,0.85,0.84625,0.825,0.81125,0.80875,0.5336855519566718,0.510715233897945,0.5454574417246323,0.4622110962446994,0.4187211119138759,0.032546928875435664,0.5783249096868027,0.002745786630596894
0.6572499999999999,0.65875,0.6927500000000001,0.625,0.7284999999999999,0.601,0.9259999999999999,0.8497499999999999,0.84625,0.825,0.81125,0.80925,0.527696065417087,0.5101258429352732,0.5460786916582594,0.4741140230815501,0.40928351593956735,0.032546928875435664,0.5783249096868027,0.002745786630596894
0.657,0.65875,0.693,0.625,0.7282500000000001,0.60075,0.9257500000000001,0.8495,0.84625,0.825,0.81125,0.80975,0.5229915573726969,0.5096638878564222,0.5474167684383795,0.4873073967935785,0.40290832399095033,0.032546928875435664,0.5783249096868027,0.002745786630596894
0.65675,0.65875,0.69325,0.625,0.728,0.6004999999999999,0.9255,0.84925,0.84625,0.825,0.81125,0.81025,0.5190729039452026,0.5089045823819891,0.5494345032655445,0.5019453007291397,0.3973805894039543,0.02999933508066823,0.5767774001711099,0.0012666441122339096
0.6565000000000001,0.65875,0.6934999999999999,0.625,0.72775,0.60025,0.92525,0.8490000000000001,0.84625,0.825,0.81125,0.8107500000000001,0.5160197525619923,0.5079222641108693,0.5515743641480381,0.5166602461882596,0.39142912673862307,0.02999933508066823,0.5767774001711099,0.0012666441122339096
0.65625,0.65875,0.69375,0.625,0.7275,0.6,0.925,0.84875,0.84625,0.825,0.81125,0.81125,0.5133489088302448,0.5064726809324058,0.5537673233154569,0.5302195675890482,0.385092455853023,0.03202838092117604,0.5759979061214603,0.0023264094022396983
0.65625,0.65875,0.69375,0.625,0.72775,0.60025,0.92525,0.84875,0.84625,0.8255,0.81125,0.8109999999999999,0.5121329581054532,0.5062124993362714,0.5546062762172782,0.5331664087269264,0.37488444404065213,0.03202838092117604,0.5759979061214603,0.0023264094022396983
0.65625,0.65875,0.69375,0.625,0.728,0.6004999999999999,0.9255,0.84875,0.84625,0.826,0.81125,0.8107500000000001,0.5097541549407955,0.5057505442574205,0.5539478574842033,0.5354969173750972,0.36716102332109424,0.03202838092117604,0.5759979061214603,0.0023264094022396983
0.65625,0.65875,0.69375,0.625,0.7282500000000001,0.60075,0.9257500000000001,0.84875,0.84625,0.8265,0.81125,0.8105,0.5066744544151224,0.5057717835713906,0.5522221632241279,0.5378852070153183,0.3647342120153809,0.03202838092117604,0.5759979061214603,0.0023264094022396983
0.65625,0.65875,0.69375,0.625,0.7284999999999999,0.601,0.9259999999999999,0.84875,0.84625,0.8270000000000001,0.81125,0.81025,0.50301067275527,0.50501778792545,0.5509902830138587,0.5437018471650407,0.37213020550672027,0.03202838092117604,0.5759979061214603,0.0023264094022396983
0.65625,0.65875,0.69375,0.625,0.72875,0.60125,0.92625,0.84875,0.84625,0.8275,0.81125,0.81,0.4996123825200446,0.5045080443901662,0.5503000053098285,0.549460706925188,0.38580508889160936,0.03202838092117604,0.5759979061214603,0.0023264094022396983
0.65625,0.65875,0.69375,0.625,0.72875,0.601,0.92625,0.84875,0.84625,0.8272499999999999,0.81125,0.8109999999999999,0.4972866776403122,0.5041894546806138,0.5515212658631126,0.5571648665107621,0.4051810510445957,0.034559850704584116,0.5752208772709746,0.0027390162877320838
0.65625,0.65875,0.69375,0.625,0.72875,0.60075,0.92625,0.84875,0.84625,0.8270000000000001,0.81125,0.812,0.49603355811607286,0.5036797111453301,0.5538841395422928,0.5647149424467436,0.42218798408886943,0.034559850704584116,0.5752208772709746,0.0027390162877320838
0.65625,0.65875,0.69375,0.625,0.72875,0.6004999999999999,0.92625,0.84875,0.84625,0.82675,0.81125,0.813,0.4957521372059682,0.5022619869378219,0.5572665002920406,0.5696648647033364,0.43563174350555767,0.03507517260129658,0.5767732979256264,0.0014806839506933448
0.65625,0.65875,0.69375,0.625,0.72875,0.60025,0.92625,0.84875,0.84625,0.8265,0.81125,0.8140000000000001,0.49615568417140127,0.5016566664896723,0.5598683162533851,0.5654275772927557,0.43761556439400146,0.03507517260129658,0.5767732979256264,0.0014806839506933448
0.65625,0.65875,0.69375,0.625,0.72875,0.6,0.92625,0.84875,0.84625,0.82625,0.81125,0.815,0.49737163489619285,0.501141613125896,0.5624966813571921,0.5617681010076279,0.4353813584033731,0.03507517260129658,0.5767732979256264,0.0014806839506933448
0.65625,0.65875,0.69375,0.625,0.72875,0.6,0.92625,0.84875,0.84625,0.82625,0.81125,0.815,0.49702649604417776,0.500392927308448,0.5623904847873413,0.5527927547771468,0.4269260435112451,0.03507517260129658,0.5767732979256264,0.0014806839506933448
0.65625,0.65875,0.69375,0.62475,0.7284999999999999,0.6,0.9255,0.8484999999999999,0.84675,0.8270000000000001,0.8115000000000001,0.8155,0.49509902830138586,0.5001327457123135,0.5594276004885043,0.5527927547771468,0.4415254266850269,0.0370945402691629,0.5798773399711389,0.0014767772170284632
0.65625,0.65875,0.69375,0.6245,0.7282500000000001,0.6,0.92475,0.8482500000000001,0.84725,0.8277500000000001,0.81175,0.816,0.4924388042266235,0.5005256730207615,0.5548823872988903,0.5531201820053654,0.4654468429453039,0.0370945402691629,0.5798773399711389,0.0014767772170284632
0.65625,0.65875,0.69375,0.62425,0.728,0.6,0.924,0.848,0.84775,0.8284999999999999,0.812,0.8165,0.49077682790845856,0.5015079912918813,0.5512770137524557,0.5590716452731719,0.4970146377991049,0.034556624647036946,0.5798781584942988,0.00379526153097654
0.65625,0.65875,0.69375,0.624,0.72775,0.6,0.92325,0.84775,0.8482500000000001,0.8292499999999999,0.8122499999999999,0.8170000000000001,0.49045292837041365,0.503148728296076,0.5488716614453353,0.5675462206968085,0.5299884424158968,0.034556624647036946,0.5798781584942988,0.00379526153097654
0.65625,0.65875,0.69375,0.62375,0.7275,0.6,0.9225,0.8475,0.84875,0.83,0.8125,0.8175,0.4925237614825041,0.5046673392449423,0.5484734243083949,0.5836671765213947,0.5592064680900185,0.034556624647036946,0.5798781584942988,0.00379526153097654
0.65625,0.65875,0.69375,0.62375,0.7275,0.6,0.9229999999999999,0.8475,0.8482500000000001,0.8305,0.8127500000000001,0.8172499999999999,0.49524770349917696,0.5047841554717782,0.5490999840705145,0.5927580847359761,0.5582049273800423,0.034556624647036946,0.5798781584942988,0.00379526153097654
0.65625,0.65875,0.6934999999999999,0.62375,0.7275,0.59975,0.92325,0.84725,0.8475,0.831,0.813,0.8170000000000001,0.49395741517548986,0.505341687463495,0.5463866617108267,0.6025423672650612,0.5798536177916246,0.034556624647036946,0.5798781584942988,0.00379526153097654
0.65625,0.65875,0.69325,0.62375,0.7275,0.5995,0.9235,0.847,0.84675,0.8315,0.81325,0.81675,0.4922476504008921,0.5059841767110922,0.5437742260924973,0.6103043078426855,0.6065292725858334,0.034556624647036946,0.5798781584942988,0.00379526153097654
0.65625,0.65875,0.693,0.62375,0.7275,0.59925,0.92375,0.84675,0.846,0.8320000000000001,0.8134999999999999,0.8165,0.4900600010619657,0.5067487920140179,0.5415653374396007,0.6160053866107826,0.6346301946621656,0.03304612676078885,0.5775486993594767,0.0027363812357397463
0.65625,0.65875,0.6927500000000001,0.62375,0.7275,0.599,0.924,0.8465,0.8452500000000001,0.8325,0.81375,0.81625,0.48660330271332236,0.5075240269739287,0.538655551425689,0.6180084674282597,0.666795061775403,0.03406065281923097,0.5791019481669728,0.0037983257921436206
0.65625,0.65875,0.6925,0.62375,0.7275,0.59875,0.92375,0.84625,0.845,0.8325,0.81375,0.81625,0.4850634524504859,0.5093134391759147,0.5389794509637339,0.617873645515126,0.7008281889979342,0.03151951113955791,0.5783265467331224,0.0016912834716499296
0.65625,0.65875,0.6925,0.62375,0.7275,0.59875,0.92375,0.84625,0.845,0.8325,0.81375,0.81625,0.4877289863537408,0.5106196569850794,0.5434503265544522,0.6171610112715891,0.7046610088616881,0.03253080486407639,0.5713447175139352,0.00106000314896021
0.65625,0.65875,0.6925,0.62375,0.7275,0.59875,0.92375,0.84625,0.845,0.8325,0.81375,0.81625,0.4901290288323687,0.5107364732119153,0.5471034885573196,0.6160053890206837,0.6947033821515018,0.02999933508066823,0.5752216957941344,0.001271025234986674
0.65625,0.65875,0.6927500000000001,0.62425,0.72775,0.59875,0.9245,0.84675,0.84575,0.8325,0.8140000000000001,0.8175,0.49005469123347317,0.5103754048744226,0.5475388944937079,0.6027734936431631,0.6755585451716669,0.02999933508066823,0.5752216957941344,0.001271025234986674
0.6565000000000001,0.659,0.693,0.62475,0.7282500000000001,0.599,0.92525,0.8482500000000001,0.84725,0.8327500000000001,0.81475,0.8195,0.4918016248075187,0.5102585886475867,0.5489088302447831,0.5835901352990736,0.6232858211303979,0.02999933508066823,0.5752216957941344,0.001271025234986674
0.65675,0.65925,0.69325,0.62525,0.72875,0.59925,0.9259999999999999,0.8497499999999999,0.84875,0.833,0.8155,0.8215,0.4916529496097276,0.5104550523018107,0.5476132320926034,0.5605546973128158,0.5799499210516422,0.033555002818783514,0.5798773399711389,0.001892615795130706
0.657,0.6595,0.6934999999999999,0.62575,0.72925,0.59925,0.9265000000000001,0.851,0.85,0.8325,0.81625,0.82375,0.490771518079966,0.511511708171826,0.5463282535974088,0.536691062101071,0.539060091605158,0.033555002818783514,0.5798773399711389,0.001892615795130706
0.6572499999999999,0.65975,0.69375,0.62625,0.7297499999999999,0.59925,0.927,0.85225,0.85125,0.8320000000000001,0.8170000000000001,0.826,0.4896723835820103,0.5135984707693941,0.5452822173843784,0.5148305072361195,0.5056432971735717,0.034063872600401564,0.5744462943602839,0.0025299581991058587
0.6575,0.66,0.69375,0.62625,0.73,0.59925,0.92675,0.853,0.85175,0.8315,0.8175,0.8270000000000001,0.49001752243402535,0.5153772633143949,0.545680454521319,0.5052773495412934,0.48012326794388205,0.032025154863628884,0.572894692228792,0.0008490262428468858
0.6575,0.66,0.69375,0.62625,0.73,0.599,0.9265000000000001,0.85275,0.8515,0.83075,0.8175,0.8272499999999999,0.48829182817395,0.5168162268358732,0.5447990229915574,0.5023305084034153,0.48921417653501054,0.032025154863628884,0.572894692228792,0.0008490262428468858
0.6575,0.66,0.69375,0.62625,0.73,0.59875,0.92625,0.8525,0.85125,0.83,0.8175,0.8275,0.4869590612223225,0.5177826156215154,0.5440715764880795,0.5038328194683794,0.49784283530700213,0.032025154863628884,0.572894692228792,0.0008490262428468858
0.6572499999999999,0.65975,0.69375,0.626,0.7297499999999999,0.599,0.9255,0.85225,0.8515,0.83,0.8172499999999999,0.8275,0.48722986247544203,0.5219614506451442,0.5423140232570488,0.5372688731700417,0.5249807380376128,0.032025154863628884,0.572894692228792,0.0008490262428468858
0.657,0.6595,0.69375,0.62575,0.7295,0.59925,0.92475,0.852,0.85175,0.83,0.8170000000000001,0.8275,0.4782456326660649,0.5224658843519354,0.6332023575638507,0.5268875175907713,0.5590138646576688,0.032025154863628884,0.572894692228792,0.0008490262428468858
0.65675,0.65925,0.69375,0.6255,0.72925,0.5995,0.924,0.85175,0.852,0.83,0.81675,0.8275,0.4558647055700101,0.49804067328625284,0.6761854192109595,0.42630970559926046,0.5650808908132886,0.03253725697917071,0.5744512151289273,0.0006387257066095545
0.6565000000000001,0.659,0.69375,0.62525,0.7290000000000001,0.59975,0.92325,0.8515,0.85225,0.83,0.8165,0.8275,0.4644241490999841,0.4868103860245314,0.6860829395210535,0.4206856689571973,0.5447226484065253,0.03253725697917071,0.5744512151289273,0.0006387257066095545
0.65625,0.65875,0.69375,0.625,0.72875,0.6,0.9225,0.85125,0.8525,0.83,0.81625,0.8275,0.4684436892688366,0.4925662401104444,0.6890405139913981,0.4270416006755435,0.5334360543606196,0.03304935281833601,0.5744471128834439,0.002528669242760643
0.65625,0.65875,0.69375,0.625,0.72875,0.6,0.9225,0.85125,0.8525,0.83,0.81625,0.8275,0.4693091913131206,0.4925184516540116,0.6925980990813997,0.37879430000568737,0.5130778123304032,0.03304935281833601,0.5744471128834439,0.002528669242760643
0.65625,0.65875,0.69375,0.625,0.72875,0.6,0.9225,0.85125,0.8525,0.83,0.81625,0.8275,0.48198906175330536,0.48697499070780015,0.6068125099559284,0.3734206484658088,0.4896764262035287,0.03304935281833601,0.5744471128834439,0.002528669242760643
0.6545000000000001,0.6559999999999999,0.69125,0.62375,0.7265,0.5995,0.9179999999999999,0.84625,0.8447499999999999,0.8145,0.80675,0.8,0.5047841554717782,0.5072744650347794,0.5661073647321192,0.4746147932859193,0.49088983125391006,0.03304935281833601,0.5744471128834439,0.002528669242760643
0.65275,0.65325,0.68875,0.6225,0.72425,0.599,0.9135,0.84125,0.8370000000000001,0.799,0.7972499999999999,0.7725,0.4979504062018797,0.5167525088939627,0.558195720278235,0.48391756614214365,0.5124807391672539,0.03355177676123635,0.5697931057527589,0.001055858556340907
0.6509999999999999,0.6505,0.68625,0.62125,0.722,0.5985,0.909,0.83625,0.8292499999999999,0.7835,0.7877500000000001,0.745,0.4960282482875803,0.5090744968937503,0.5576488079435035,0.4765408333329317,0.5227850528840732,0.03355177676123635,0.5697931057527589,0.001055858556340907
0.64925,0.64775,0.68375,0.62,0.7197499999999999,0.598,0.9045000000000001,0.83125,0.8215,0.768,0.77825,0.7175,0.49633621834014763,0.5026124356183296,0.5577709339988318,0.490986132706502,0.521687209968411,0.03355177676123635,0.5697931057527589,0.001055858556340907
0.6465000000000001,0.6447499999999999,0.68025,0.61775,0.715,0.595,0.8995000000000001,0.8272499999999999,0.81375,0.75075,0.7685,0.6925,0.4941804279721765,0.5053841660914352,0.5540806031965168,0.504680277074756,0.515658705026427,0.03355177676123635,0.5697931057527589,0.001055858556340907
0.6455,0.6445000000000001,0.67925,0.61675,0.7125,0.5925,0.899,0.82825,0.81375,0.7490000000000001,0.76825,0.695,0.49552381458078903,0.5070408325811077,0.5534540434343971,0.4998266562707553,0.5114791981560401,0.7757261613898179,0.3015307105315475,0.834272561494217
0.6445000000000001,0.64425,0.67825,0.61575,0.71,0.59,0.8985,0.8292499999999999,0.81375,0.74725,0.768,0.6975,0.4957574470344608,0.506159401051346,0.5536345776031434,0.4904468418909722,0.5119029269874695,0.7757261613898179,0.3015307105315475,0.834272561494217
0.64325,0.643,0.6765000000000001,0.61375,0.7070000000000001,0.58625,0.897,0.82975,0.8125,0.7465,0.7685,0.7065,0.4955078850953114,0.505421334890883,0.5536876758880688,0.48809707308783995,0.5122688746762298,0.7757261613898179,0.3015307105315475,0.834272561494217
0.642,0.6417499999999999,0.67475,0.61175,0.7040000000000001,0.5825,0.8955,0.83025,0.81125,0.74575,0.769,0.7155,0.49524239367068446,0.5051611532947485,0.5533531566930389,0.4875385215148734,0.5120377499549349,0.7879584615340778,0.2991996143504058,0.8252946058222734
0.6417499999999999,0.64075,0.674,0.61075,0.7034999999999999,0.58125,0.8945000000000001,0.82975,0.81,0.74675,0.7697499999999999,0.722,0.49517867572877394,0.5045876918175543,0.5534752827483672,0.4886556246608064,0.511536979449328,1.0,0.25269231285900373,0.8736042152518771
0.6415000000000001,0.63975,0.67325,0.60975,0.703,0.58,0.8935,0.8292499999999999,0.80875,0.74775,0.7705,0.7284999999999999,0.49500345138852014,0.5042637922795093,0.5534487336059045,0.4912172578796534,0.5108243446033158,0.778206045634354,0.2758353714961251,0.8539275006783932
0.64125,0.63875,0.6725,0.60875,0.7025,0.57875,0.8925,0.82875,0.8075,0.74875,0.77125,0.735,0.49482822704826634,0.5042160038230765,0.5531726225242924,0.49453004648036364,0.509649460164095,0.7107387258797437,0.27036333231948817,0.8385852273768358
0.64125,0.63875,0.6725,0.60875,0.7025,0.57875,0.8925,0.82875,0.8075,0.74875,0.77125,0.735,0.4947432697923857,0.5041575957096586,0.553039876811979,0.49412557810513336,0.5078775033148188,0.7107387258797437,0.27036333231948817,0.8385852273768358
0.6409999999999999,0.63825,0.6729999999999999,0.60875,0.70325,0.57825,0.893,0.82875,0.8085,0.7497499999999999,0.772,0.7390000000000001,0.49469548133595287,0.5040513991398078,0.553119524239367,0.4949537752741383,0.5052773493341925,0.7107387258797437,0.27036333231948817,0.8385852273768358
0.64075,0.63775,0.6735,0.60875,0.7040000000000001,0.57775,0.8935,0.82875,0.8095,0.75075,0.77275,0.743,0.4945839749376095,0.5039133435990018,0.5532204109807253,0.495820493280232,0.5030624034232162,0.7107387258797437,0.27036333231948817,0.8385852273768358
0.6405,0.63725,0.674,0.60875,0.70475,0.57725,0.894,0.82875,0.8105,0.7517499999999999,0.7735,0.747,0.49459990442308716,0.5037381192587479,0.5534699729198747,0.4970338984435775,0.501136363489168,0.6473810770686443,0.2920473493499699,0.8161014914446101
0.6402500000000001,0.6367499999999999,0.6745,0.60875,0.7055,0.57675,0.8945000000000001,0.82875,0.8115000000000001,0.75275,0.77425,0.7509999999999999,0.4946105240800722,0.5036266128604046,0.5537885626294271,0.49832434522461844,0.49940292758994476,0.6473810770686443,0.2920473493499699,0.8161014914446101
0.63975,0.63575,0.675,0.60875,0.706,0.57575,0.8952500000000001,0.82875,0.81175,0.75425,0.77425,0.7547499999999999,0.49465831253650505,0.503610683374927,0.5539106886847555,0.49996147920056594,0.4982665640254674,0.49288088809322284,0.310533126763767,0.7349001239087023
0.6395000000000001,0.63525,0.675,0.60875,0.70575,0.57525,0.8955,0.82875,0.8109999999999999,0.7547499999999999,0.7735,0.7545000000000001,0.49470610099293794,0.5037009504593002,0.5538363510858599,0.5000577811991511,0.49799691842942895,0.49288088809322284,0.310533126763767,0.7349001239087023
0.63925,0.63475,0.675,0.60875,0.7055,0.57475,0.89575,0.82875,0.81025,0.7552500000000001,0.77275,0.75425,0.49475388944937077,0.503807147029151,0.5538788297138002,0.5,0.49778505401371426,0.49288088809322284,0.310533126763767,0.7349001239087023
0.639,0.63425,0.675,0.60875,0.70525,0.5742499999999999,0.8959999999999999,0.82875,0.8095,0.75575,0.772,0.754,0.4946901715074603,0.5038655551425689,0.5537726331439494,0.4994414483893788,0.4975539292171099,0.4837340672141433,0.3113134393365764,0.7447716106955691
0.63875,0.63375,0.6745,0.60875,0.705,0.57325,0.89625,0.8284999999999999,0.80825,0.75625,0.7717499999999999,0.75325,0.4947007911644454,0.5038390060001062,0.5537248446875166,0.4987480740183931,0.4980739600094697,0.4837340672141433,0.3113134393365764,0.7447716106955691
0.63875,0.63375,0.674,0.60875,0.705,0.57275,0.89625,0.82825,0.8077500000000001,0.75625,0.77225,0.75275,0.4945945945945946,0.5038336961716137,0.5536770562310838,0.4979391372491052,0.49861325120154654,0.4837340672141433,0.3113134393365764,0.7447716106955691
0.63875,0.63375,0.6735,0.60875,0.705,0.57225,0.89625,0.828,0.8072499999999999,0.75625,0.77275,0.75225,0.4945680454521319,0.5037646684012106,0.5537885626294271,0.4977657936516519,0.49903697999532115,0.4837340672141433,0.3113134393365764,0.7447716106955691
0.63875,0.63375,0.6729999999999999,0.60875,0.705,0.57175,0.89625,0.8277500000000001,0.80675,0.75625,0.77325,0.7517499999999999,0.4945468061381617,0.5036372325173897,0.5536823660595763,0.4976694916530668,0.49913328201273366,0.41880788913920614,0.39667649745080596,0.7570592660838574
0.63875,0.63375,0.6725,0.60875,0.705,0.57125,0.89625,0.8275,0.80625,0.75625,0.77375,0.75125,0.4945680454521319,0.5036425423458822,0.5537567036584718,0.4979776580673666,0.4990755008324099,0.41625062344817376,0.3951216115969902,0.7595876509589295
0.63875,0.63375,0.6725,0.60875,0.705,0.57125,0.89625,0.8275,0.80625,0.75625,0.77375,0.75125,0.4945839749376095,0.5036159932034195,0.5537726331439494,0.4983628660428798,0.4982280432260333,0.41625062344817376,0.3951216115969902,0.7595876509589295
0.63875,0.63375,0.6725,0.60875,0.705,0.57125,0.89625,0.8275,0.80625,0.75625,0.77375,0.75125,0.494716720649923,0.5035575850900016,0.5537885626294271,0.4989599384152804,0.4973805856761387,0.41625062344817376,0.3951216115969902,0.7595876509589295
0.63875,0.6335000000000001,0.6729999999999999,0.60875,0.705,0.57125,0.897,0.8277500000000001,0.8075,0.75575,0.77375,0.7509999999999999,0.49473265013540063,0.5035947538894494,0.5537885626294271,0.4997303544039616,0.49749614807444087,0.41625062344817376,0.3951216115969902,0.7595876509589295
0.63875,0.63325,0.6735,0.60875,0.705,0.57125,0.89775,0.828,0.80875,0.7552500000000001,0.77375,0.75075,0.49467955185047524,0.5036372325173897,0.5538894493707853,0.5005585515729665,0.49780431446991336,0.41625062344817376,0.3951216115969902,0.7595876509589295
0.6385000000000001,0.63275,0.67375,0.6085,0.70475,0.57075,0.89825,0.828,0.80925,0.75425,0.77325,0.75,0.4946901715074603,0.5035788244039717,0.5538575903998301,0.5011941447636284,0.4981317412462755,0.27175378618335794,0.4175408550187002,0.7042125289902726
0.63825,0.63225,0.674,0.6082500000000001,0.7045,0.57025,0.89875,0.828,0.80975,0.75325,0.77275,0.74925,0.49460521425157966,0.5034885573195986,0.5538204216003824,0.5019260399340483,0.4984784284788367,0.27175378618335794,0.4175408550187002,0.7042125289902726
0.638,0.6317499999999999,0.67425,0.608,0.7042499999999999,0.56975,0.89925,0.828,0.81025,0.75225,0.77225,0.7484999999999999,0.4944883980247438,0.5034938671480911,0.5537620134869644,0.5027734975592523,0.49884437601697823,0.27175378618335794,0.4175408550187002,0.7042125289902726
0.63775,0.6315,0.674,0.60775,0.7040000000000001,0.5692499999999999,0.899,0.8277500000000001,0.8095,0.7517499999999999,0.7717499999999999,0.748,0.49450963733871395,0.5034779376626135,0.5537567036584718,0.5032164867339166,0.4982665640254674,0.27175378618335794,0.4175408550187002,0.7042125289902726
0.6375,0.6315,0.674,0.60775,0.70375,0.56875,0.898,0.8272499999999999,0.809,0.7515000000000001,0.77125,0.74625,0.49459990442308716,0.5034673180056284,0.5538257314288748,0.503717257164214,0.49780431443225864,0.2691933007111549,0.40978858365304294,0.7060903337468221
0.6375,0.6317499999999999,0.67425,0.608,0.70375,0.56875,0.89725,0.8270000000000001,0.80925,0.7517499999999999,0.77125,0.745,0.4945945945945946,0.5034460786916582,0.5538469707428451,0.5042180275568569,0.4975539292547646,0.2691933007111549,0.40978858365304294,0.7060903337468221
0.6375,0.632,0.6745,0.6082500000000001,0.70375,0.56875,0.8965000000000001,0.82675,0.8095,0.752,0.77125,0.74375,0.4946901715074603,0.5034832474911061,0.5538735198853078,0.5046610167691759,0.49751540841767583,0.2691933007111549,0.40978858365304294,0.7060903337468221
0.6375,0.63225,0.67475,0.6085,0.70375,0.56875,0.89575,0.8265,0.80975,0.75225,0.77125,0.7425,0.4946901715074603,0.5034991769765836,0.5539319279987256,0.5049499227084492,0.49739984605702836,0.22757210586956816,0.4415772690918481,0.6930475306598897
0.6375,0.6325,0.675,0.60875,0.70375,0.56875,0.895,0.82625,0.81,0.7525,0.77125,0.74125,0.4946742420219827,0.503472627834121,0.5538682100568152,0.5050077039264277,0.4972842836210715,0.22757210586956816,0.4415772690918481,0.6930475306598897
0.6375,0.6325,0.675,0.60875,0.70375,0.56875,0.895,0.82625,0.81,0.7525,0.77125,0.74125,0.4946742420219827,0.5034991769765836,0.5536770562310838,0.5052195683421423,0.4969953776441434,0.22757210586956816,0.4415772690918481,0.6930475306598897
0.6375,0.6325,0.675,0.60875,0.70375,0.56875,0.895,0.82625,0.81,0.7525,0.77125,0.74125,0.49471141082143044,0.5035628949184942,0.5536186481176658,0.5053929119207682,0.49655238843182437,0.2189599569561075,0.44933368122172584,0.6888370643984156
0.63725,0.6325,0.67475,0.6085,0.7034999999999999,0.5685,0.8945000000000001,0.82575,0.80925,0.752,0.77075,0.7404999999999999,0.49470610099293794,0.5036425423458822,0.553639887431636,0.5056818178600416,0.4963405240914191,0.2189599569561075,0.44933368122172584,0.6888370643984156
0.637,0.6325,0.6745,0.6082500000000001,0.70325,0.56825,0.894,0.82525,0.8085,0.7515000000000001,0.7702500000000001,0.7397499999999999,0.4947591992778633,0.5036744013168375,0.5536611267456061,0.5059514634184253,0.4962442221116613,0.2189599569561075,0.44933368122172584,0.6888370643984156
0.6367499999999999,0.6325,0.67425,0.608,0.703,0.568,0.8935,0.82475,0.8077500000000001,0.7509999999999999,0.7697499999999999,0.7390000000000001,0.494844156533744,0.5037593585727181,0.5536664365740986,0.50616332783414,0.49630200332963975,0.2189599569561075,0.44933368122172584,0.6888370643984156
0.6365,0.6325,0.674,0.60775,0.7027500000000001,0.56775,0.893,0.8242499999999999,0.807,0.7505,0.76925,0.7382500000000001,0.49489725481866936,0.5038708649710615,0.5537036053735465,0.5062403693576987,0.4963212637105294,0.2189599569561075,0.44933368122172584,0.6888370643984156
0.63625,0.6325,0.67375,0.6075,0.7025,0.5675,0.8925,0.82375,0.80625,0.75,0.76875,0.7375,0.49490787447565443,0.5039186534274943,0.5536345776031434,0.5064522337734134,0.4961671805127932,0.18396378510645722,0.49432706153604156,0.6681727900090352
0.63625,0.63225,0.67375,0.60775,0.70175,0.5675,0.89075,0.823,0.8057500000000001,0.74925,0.7685,0.73625,0.4949556629320873,0.503955822226942,0.5536292677746508,0.5066063169711497,0.4958012328993423,0.17939359758627632,0.4989884450048493,0.6715303605009847
0.63625,0.632,0.67375,0.608,0.701,0.5675,0.889,0.8222499999999999,0.80525,0.7484999999999999,0.76825,0.735,0.49497690224605745,0.503945202569957,0.5536080284606807,0.5067604001688859,0.49543528528589137,0.17939359758627632,0.4989884450048493,0.6715303605009847
0.63625,0.6317499999999999,0.67375,0.6082500000000001,0.70025,0.5675,0.88725,0.8215,0.80475,0.74775,0.768,0.73375,0.49499814156002764,0.5039345829129719,0.5536717464025912,0.5070300458025789,0.49516563972750766,0.17939359758627632,0.4989884450048493,0.6715303605009847
0.63625,0.6315,0.67375,0.6085,0.6995,0.5675,0.8855,0.82075,0.80425,0.747,0.76775,0.7325,0.49503000053098284,0.5038814846280465,0.553708915202039,0.5065100150667012,0.4952812020881551,0.17939359758627632,0.4989884450048493,0.6715303605009847
0.636,0.63125,0.67325,0.60875,0.69875,0.56725,0.883,0.82025,0.8025,0.7454999999999999,0.7667499999999999,0.7295,0.49508309881590823,0.5039770615409123,0.5537673233154569,0.5058359010577779,0.49555084764653884,0.17939359758627632,0.4989884450048493,0.6715303605009847
0.63575,0.63125,0.6727500000000001,0.60875,0.69875,0.5670000000000001,0.88225,0.8205,0.80125,0.7447499999999999,0.7659999999999999,0.72775,0.49512026761535605,0.5040779482822705,0.5536929857165613,0.5051040059061854,0.4958397535858122,0.17736455802214504,0.504426038800983,0.6742410582849303
0.6355,0.63125,0.6722499999999999,0.60875,0.69875,0.56675,0.8815000000000001,0.82075,0.8,0.7440000000000001,0.7652500000000001,0.726,0.49519991504274413,0.5041575957096586,0.5536080284606807,0.5041409859579887,0.4961286595250856,0.17736455802214504,0.504426038800983,0.6742410582849303
0.63525,0.63125,0.67175,0.60875,0.69875,0.5665,0.88075,0.821,0.79875,0.7432500000000001,0.7645000000000001,0.72425,0.4951415069293262,0.5041788350236287,0.5535336908617852,0.50329352829513,0.4963212634846012,0.1807848066597979,0.5510365608776842,0.7203988255237079
0.635,0.63125,0.67125,0.60875,0.69875,0.56625,0.88,0.82125,0.7975,0.7425,0.76375,0.7225,0.49507247915892316,0.5042372431370467,0.5534912122338449,0.5032357470771516,0.49618644074306406,0.1807848066597979,0.5510365608776842,0.7203988255237079
0.635,0.63125,0.67125,0.60875,0.69875,0.56625,0.88,0.82125,0.7975,0.7425,0.76375,0.7225,0.49515212658631125,0.504152285881166,0.5536080284606807,0.50329352829513,0.4960323575453278,0.1807848066597979,0.5510365608776842,0.7203988255237079
0.63475,0.63075,0.67125,0.6085,0.69825,0.5665,0.88,0.82,0.79675,0.7425,0.76325,0.72125,0.49519460521425157,0.5041098072532257,0.5536823660595763,0.5032357470771516,0.4962827427981313,0.1807848066597979,0.5510365608776842,0.7203988255237079
0.6345000000000001,0.63025,0.67125,0.6082500000000001,0.6977500000000001,0.56675,0.88,0.81875,0.7959999999999999,0.7425,0.76275,0.72,0.49515212658631125,0.5041310465671959,0.5537726331439494,0.5033320490945641,0.49668721124867093,0.1807622368097208,0.549497246223274,0.7260763340597516
0.63425,0.62975,0.67125,0.608,0.6972499999999999,0.5670000000000001,0.88,0.8175,0.79525,0.7425,0.76225,0.71875,0.49521584452822176,0.5042053841660914,0.5537620134869644,0.5032164867339166,0.4969953776441434,0.1807622368097208,0.549497246223274,0.7260763340597516
0.634,0.62925,0.67125,0.60775,0.69675,0.56725,0.88,0.81625,0.7945,0.7425,0.7617499999999999,0.7175,0.4952264641852068,0.5042319333085541,0.5538788297138002,0.5030238827367463,0.49736132521993964,0.18011794792764027,0.5332426570166959,0.768254180160838
0.63375,0.62875,0.67125,0.6075,0.69625,0.5675,0.88,0.815,0.79375,0.7425,0.76125,0.71625,0.49509902830138586,0.5043222003929273,0.5538469707428451,0.5027349767221635,0.4979776580485393,0.18011794792764027,0.5332426570166959,0.768254180160838
0.63375,0.62875,0.6709999999999999,0.6075,0.69575,0.5675,0.8795000000000001,0.81475,0.7925,0.74225,0.7605,0.71525,0.49517336590028144,0.5043434397068974,0.5538257314288748,0.5024845915446694,0.49818952242659925,0.18011794792764027,0.5332426570166959,0.768254180160838
0.63375,0.62875,0.6707500000000001,0.6075,0.69525,0.5675,0.879,0.8145,0.79125,0.742,0.7597499999999999,0.7142499999999999,0.4952105346997292,0.5043912281633304,0.5537991822864121,0.5026194143238613,0.4983436056055081,0.18011794792764027,0.5332426570166959,0.768254180160838
0.63375,0.6285000000000001,0.67025,0.6075,0.6945,0.56725,0.8785,0.8142499999999999,0.79025,0.7415,0.75875,0.71175,0.49517867572877394,0.5044443264482558,0.5537832528009345,0.502638674704751,0.49851694922178874,0.18011794792764027,0.5332426570166959,0.768254180160838
0.63375,0.62825,0.66975,0.6075,0.69375,0.5670000000000001,0.878,0.8140000000000001,0.78925,0.741,0.75775,0.7092499999999999,0.49522115435671427,0.5044814952477035,0.553708915202039,0.502677195504185,0.49859399082065686,0.1709582353711251,0.5456514392309388,0.7682572444220053
0.63375,0.628,0.66925,0.6075,0.693,0.56675,0.8775,0.81375,0.78825,0.7404999999999999,0.7567499999999999,0.70675,0.4952105346997292,0.5044602559337333,0.5536239579461584,0.5028312787019212,0.4982858244251844,0.17246873325737327,0.5479817168889206,0.7707773972511406
0.63375,0.62775,0.669,0.6075,0.6927500000000001,0.5665,0.8775,0.81375,0.7885,0.7402500000000001,0.7565000000000001,0.70525,0.4950777889874157,0.5044177773057931,0.5535443105187703,0.503312788751329,0.49778505403254164,0.17247195931492043,0.5417785535665389,0.771194576609606
0.63375,0.6275,0.66875,0.6075,0.6925,0.56625,0.8775,0.81375,0.78875,0.74,0.75625,0.70375,0.49519460521425157,0.5044496362767482,0.5535390006902777,0.5036016947659119,0.4972072420222034,0.17247195931492043,0.5417785535665389,0.771194576609606
0.6335000000000001,0.62725,0.6685,0.6072500000000001,0.6920000000000001,0.56575,0.8767499999999999,0.81325,0.7877500000000001,0.7395,0.75625,0.70375,0.49519460521425157,0.5044602559337333,0.5536292677746508,0.504121725577099,0.49726502322135446,0.17247195931492043,0.5417785535665389,0.771194576609606
0.63325,0.627,0.66825,0.607,0.6915,0.56525,0.8759999999999999,0.8127500000000001,0.78675,0.7390000000000001,0.75625,0.70375,0.4952795624701322,0.5044655657622259,0.5536345776031434,0.5045069335714396,0.4974191064190907,0.17247195931492043,0.5417785535665389,0.771194576609606
0.633,0.6267499999999999,0.6679999999999999,0.60675,0.691,0.56475,0.8752500000000001,0.8122499999999999,0.7857500000000001,0.7384999999999999,0.75625,0.70375,0.4953592098975203,0.504545213189614,0.5536505070886211,0.5048728811848905,0.4976309707971507,0.18106799049339836,0.533249214831659,0.778984188945235
0.63275,0.6265,0.6677500000000001,0.6065,0.6905,0.5642499999999999,0.8745,0.81175,0.78475,0.738,0.75625,0.70375,0.49541761801093825,0.504693888387405,0.553719534859024,0.5049306623275596,0.49797765799205723,0.20688832577517424,0.5356327831621891,0.8218520439407981
0.6325,0.62625,0.6675,0.60625,0.69,0.56375,0.87375,0.81125,0.78375,0.7375,0.75625,0.70375,0.49529549195560985,0.5046567195879573,0.5536611267456061,0.5047958395107129,0.49822804320720593,0.20688832577517424,0.5356327831621891,0.8218520439407981
0.6325,0.62625,0.6675,0.60625,0.69,0.56375,0.87375,0.81125,0.78375,0.7375,0.75625,0.70375,0.4953061116125949,0.5045983114745394,0.5535655498327404,0.5046032354758879,0.4979391372114505,0.20688832577517424,0.5356327831621891,0.8218520439407981
0.632,0.62625,0.6672499999999999,0.606,0.69,0.5635,0.8747499999999999,0.81125,0.78425,0.737,0.75575,0.7027500000000001,0.4952530133276695,0.5046514097594648,0.5535549301757553,0.5045647147141086,0.4976117103974336,0.20688832577517424,0.5356327831621891,0.8218520439407981
0.6315,0.62625,0.667,0.60575,0.69,0.56325,0.87575,0.81125,0.78475,0.7365,0.7552500000000001,0.70175,0.49527425264163966,0.5045770721605692,0.5535443105187703,0.5040832047400102,0.4976117103974336,0.21801260067951314,0.5286689710822028,0.8418228053347925
0.631,0.62625,0.66675,0.6054999999999999,0.69,0.563,0.8767499999999999,0.81125,0.78525,0.736,0.7547499999999999,0.70075,0.4953114214410875,0.5045080443901662,0.5535867891467106,0.5036209551468015,0.49766949157775736,0.21801260067951314,0.5286689710822028,0.8418228053347925
0.63075,0.62625,0.6665000000000001,0.605,0.6895,0.56275,0.8775,0.8107500000000001,0.7855,0.7354999999999999,0.75425,0.7,0.49524239367068446,0.5045558328465991,0.553708915202039,0.5031394451727031,0.49778505397605954,0.21801260067951314,0.5286689710822028,0.8418228053347925
0.6305,0.62625,0.66625,0.6045,0.6890000000000001,0.5625,0.87825,0.81025,0.7857500000000001,0.735,0.75375,0.6992499999999999,0.49525832315616203,0.504614240960017,0.5536876758880688,0.5026964559980388,0.49780431439460393,0.21801260067951314,0.5286689710822028,0.8418228053347925
0.63075,0.62625,0.66625,0.60425,0.6884999999999999,0.5625,0.878,0.80975,0.7855,0.735,0.75375,0.6995,0.49529549195560985,0.504614240960017,0.5536611267456061,0.5022727271666094,0.49790061641201644,0.27370813686653334,0.503908770682696,0.8920577859965473
0.631,0.62625,0.66625,0.604,0.688,0.5625,0.87775,0.80925,0.78525,0.735,0.75375,0.69975,0.4952901821271173,0.5046726490734349,0.553639887431636,0.5021956855677413,0.4977272728333905,0.27725412643200714,0.5046841624868621,0.8937481193612005
0.63125,0.62625,0.66625,0.60375,0.6875,0.5625,0.8775,0.80875,0.785,0.735,0.75375,0.7,0.49524770349917696,0.5047045080443902,0.5535390006902777,0.502157164805962,0.4975539292547646,0.27725412643200714,0.5046841624868621,0.8937481193612005
0.63125,0.62625,0.66625,0.60375,0.6875,0.5625,0.8775,0.80875,0.785,0.735,0.75375,0.7,0.495385759039983,0.5047363670153454,0.5534859024053523,0.5022727272042642,0.49751540845533054,0.27725412643200714,0.5046841624868621,0.8937481193612005
0.6315,0.626,0.6665000000000001,0.604,0.6872499999999999,0.5625,0.87625,0.8077500000000001,0.78375,0.7347499999999999,0.75325,0.6990000000000001,0.4954388573249084,0.5047629161578081,0.5535761694897254,0.5025616331811923,0.49768875203395646,0.27725412643200714,0.5046841624868621,0.8937481193612005
0.6317499999999999,0.62575,0.66675,0.60425,0.687,0.5625,0.875,0.80675,0.7825,0.7345,0.75275,0.698,0.4954016885254606,0.5047204375298678,0.553570859661233,0.5026771955794944,0.4978428352316927,0.27725412643200714,0.5046841624868621,0.8937481193612005
0.632,0.6255,0.667,0.6045,0.68675,0.5625,0.87375,0.8057500000000001,0.78125,0.73425,0.75225,0.6970000000000001,0.49541761801093825,0.5046885785589126,0.5536717464025912,0.5026964559603841,0.4980546996474074,0.27725412643200714,0.5046841624868621,0.8937481193612005
0.63225,0.62525,0.6672499999999999,0.60475,0.6865000000000001,0.5625,0.8725,0.80475,0.78,0.7340000000000001,0.7517499999999999,0.696,0.4954069983539532,0.504693888387405,0.5537513938299793,0.5026386747424056,0.49820878284514364,0.2924912983374042,0.4953679533642097,0.8859822038900089
0.6325,0.625,0.6675,0.605,0.68625,0.5625,0.87125,0.80375,0.77875,0.73375,0.75125,0.695,0.4953432804120427,0.504693888387405,0.5537142250305315,0.502214945948631,0.4979391372491052,0.32399629221799986,0.48835745657505936,0.8517554285170518
0.63275,0.62525,0.6677500000000001,0.605,0.68675,0.563,0.871,0.8045,0.77825,0.7334999999999999,0.7515000000000001,0.695,0.49536982955450537,0.504741676843838,0.553708915202039,0.5015600923770794,0.49753466887387493,0.32399629221799986,0.48835745657505936,0.8517554285170518
0.633,0.6255,0.6679999999999999,0.605,0.6872499999999999,0.5635,0.87075,0.80525,0.77775,0.7332500000000001,0.7517499999999999,0.695,0.49536451972601286,0.5047363670153454,0.5539584771411883,0.4999036980014149,0.4978620956690644,0.32399629221799986,0.48835745657505936,0.8517554285170518
0.63325,0.62575,0.66825,0.605,0.6877500000000001,0.564,0.8704999999999999,0.8059999999999999,0.77725,0.733,0.752,0.695,0.49531673126958,0.5048584930706738,0.5541761801093825,0.497996918485911,0.49830508484372876,0.34123349427510985,0.4720643293721788,0.852393241323652
0.6335000000000001,0.626,0.6685,0.605,0.68825,0.5645,0.8702500000000001,0.80675,0.7767499999999999,0.73275,0.75225,0.695,0.49529549195560985,0.5049434503265544,0.5544151223915468,0.4961671805692753,0.49880585523637155,0.34123349427510985,0.4720643293721788,0.852393241323652
0.63425,0.627,0.669,0.6054999999999999,0.68975,0.5660000000000001,0.8715,0.8072499999999999,0.778,0.733,0.75275,0.6955,0.49534859024053524,0.5048478734136888,0.5546753039876812,0.4940485366380567,0.49986517723963547,0.34123349427510985,0.4720643293721788,0.852393241323652
0.63475,0.62775,0.66925,0.606,0.69075,0.5670000000000001,0.873,0.807,0.7797499999999999,0.7334999999999999,0.753,0.696,0.49536982955450537,0.5048956618701216,0.5550416821536664,0.49135208069649994,0.5014252695978876,0.41591531430731793,0.4006698408352827,0.8173269567236668
0.63525,0.6285000000000001,0.6695,0.6065,0.69175,0.568,0.8745,0.80675,0.7815000000000001,0.7340000000000001,0.75325,0.6965,0.4955450538947592,0.5051080550098231,0.5551691180374874,0.4889060099136099,0.5029661015940773,0.42251454139163014,0.3921339442854397,0.8166981267468539
0.63575,0.62925,0.66975,0.607,0.6927500000000001,0.569,0.8759999999999999,0.8065000000000001,0.78325,0.7345,0.7535,0.6970000000000001,0.49570965857802796,0.5051505336377635,0.5548876971273828,0.48599768953751105,0.5049499228214133,0.42251454139163014,0.3921339442854397,0.8166981267468539
0.63625,0.63,0.67,0.6075,0.69375,0.57,0.8775,0.80625,0.785,0.735,0.75375,0.6975,0.49593798120320715,0.5051080550098231,0.5544629108479796,0.4827619422344313,0.5074922956970254,0.42251454139163014,0.3921339442854397,0.8166981267468539
0.6367499999999999,0.6305,0.6707500000000001,0.6085,0.69575,0.5715,0.8802500000000001,0.81,0.789,0.7382500000000001,0.75625,0.706,0.49559284235119205,0.504741676843838,0.5542983061647109,0.48555470017457325,0.50441063181761,0.42101048934409974,0.38902004144327207,0.808298465990065
0.63725,0.631,0.6715000000000001,0.6095,0.6977500000000001,0.573,0.883,0.81375,0.7929999999999999,0.7415,0.75875,0.7145,0.4953061116125949,0.5043275102214199,0.5541337014814421,0.48975346727523095,0.5002889061652016,0.42101048934409974,0.38902004144327207,0.808298465990065
0.63775,0.6315,0.6722499999999999,0.6104999999999999,0.69975,0.5745,0.88575,0.8175,0.797,0.7447499999999999,0.76125,0.723,0.4949609727605798,0.5039505123984496,0.5536876758880688,0.4952426812510664,0.49518490010839733,0.42101048934409974,0.38902004144327207,0.808298465990065
0.63825,0.632,0.6729999999999999,0.6114999999999999,0.70175,0.5760000000000001,0.8885,0.82125,0.8009999999999999,0.748,0.76375,0.7315,0.4947591992778633,0.5037009504593002,0.5534699729198747,0.5016563942627004,0.48925269692024287,0.22307984584064333,0.398624987017982,0.3751059085265872
0.63875,0.6325,0.67375,0.6125,0.70375,0.5775,0.89125,0.825,0.805,0.75125,0.76625,0.74,0.49512557744384855,0.5036266128604046,0.5536558169171135,0.5083975342013154,0.48409090972076957,0.21346606882255265,0.363687173352083,0.3572663700083586
0.63925,0.6335000000000001,0.6745,0.613,0.7042499999999999,0.57875,0.8902500000000001,0.82525,0.8035,0.7495,0.7645000000000001,0.73425,0.49517867572877394,0.5037752880581957,0.5537354643445017,0.5080701073872985,0.4884822807809429,0.21346606882255265,0.363687173352083,0.3572663700083586
0.63975,0.6345000000000001,0.67525,0.6135,0.70475,0.58,0.88925,0.8255,0.802,0.74775,0.76275,0.7284999999999999,0.4951149577868635,0.5037752880581957,0.5536770562310838,0.5069337438228212,0.4934322036400109,0.21346606882255265,0.363687173352083,0.3572663700083586
0.6402500000000001,0.6355,0.6759999999999999,0.614,0.70525,0.58125,0.88825,0.82575,0.8005,0.746,0.7609999999999999,0.72275,0.4951839855572665,0.5038177666861361,0.5535230712048,0.5056625574038426,0.49815100170247456,0.18964898347366035,0.247268990254904,0.34132858558710205
0.64075,0.6365,0.67675,0.6145,0.70575,0.5825,0.88725,0.826,0.799,0.74425,0.75925,0.7170000000000001,0.49515212658631125,0.5039770615409123,0.5534115648064567,0.5041987671006577,0.5022342064613122,0.18964898347366035,0.247268990254904,0.34132858558710205
0.64125,0.6375,0.6775,0.615,0.70625,0.58375,0.88625,0.82625,0.7975,0.7425,0.7575,0.71125,0.4944671587107736,0.5039505123984496,0.5536027186321881,0.5019838211896814,0.5044876731905499,0.20411290578798535,0.8386654451733205,0.43687152191159145
0.6409999999999999,0.63725,0.67675,0.6145,0.70575,0.583,0.8852500000000001,0.8255,0.7965000000000001,0.7425,0.757,0.71125,0.4947007911644454,0.5040354696543302,0.5535018318908299,0.5008667180060937,0.5024268104020004,0.20411290578798535,0.8386654451733205,0.43687152191159145
0.64075,0.637,0.6759999999999999,0.614,0.70525,0.58225,0.88425,0.82475,0.7955,0.7425,0.7565000000000001,0.71125,0.4950618595019381,0.5042053841660914,0.5536133382891733,0.49988443763935253,0.5007126348083575,0.20411290578798535,0.8386654451733205,0.43687152191159145
0.64075,0.637,0.6757500000000001,0.61375,0.705,0.58225,0.8835,0.8240000000000001,0.79475,0.742,0.7555,0.7095,0.49517867572877394,0.5041098072532257,0.5540806031965168,0.4985939908394842,0.4996918336045275,0.20411290578798535,0.8386654451733205,0.43687152191159145
0.64075,0.637,0.6755,0.6135,0.70475,0.58225,0.88275,0.82325,0.794,0.7415,0.7545000000000001,0.7077500000000001,0.4952901821271173,0.5038336961716137,0.5546275155312483,0.4973998460193737,0.49955701080650833,0.21064120354089563,0.7742691755781771,0.4531204258452378
0.64075,0.637,0.67525,0.6132500000000001,0.7045,0.58225,0.882,0.8225,0.79325,0.741,0.7535,0.706,0.49534859024053524,0.5036266128604046,0.5542717570222482,0.4971302004233353,0.49994221880084894,0.21064120354089563,0.7742691755781771,0.4531204258452378
0.6409999999999999,0.63725,0.6757500000000001,0.6135,0.70475,0.583,0.88225,0.8225,0.7935,0.7404999999999999,0.753,0.7042499999999999,0.49539637869696806,0.5035628949184942,0.5540275049115914,0.49788135601229944,0.49994221880084894,0.20759441186077507,0.6578534480504776,0.4422863717073625
0.64125,0.6375,0.67625,0.61375,0.705,0.58375,0.8825,0.8225,0.79375,0.74,0.7525,0.7025,0.49527425264163966,0.5035469654330165,0.5538947591992779,0.4986325115824362,0.49909476117564494,0.20759441186077507,0.6578534480504776,0.4422863717073625
0.64125,0.6375,0.67625,0.61375,0.705,0.58375,0.8825,0.8225,0.79375,0.74,0.7525,0.7025,0.4952370838421919,0.5036478521743748,0.5537673233154569,0.49934514639079364,0.4981510015706831,0.20759441186077507,0.6578534480504776,0.4422863717073625
0.64125,0.6375,0.67625,0.61375,0.705,0.58375,0.8825,0.8225,0.79375,0.74,0.7525,0.7025,0.4952901821271173,0.5035894440609568,0.553315987893591,0.5003274267951895,0.49693759640733765,0.19135561185074793,0.693549464534186,0.4428684670505039
0.6409999999999999,0.63725,0.6765000000000001,0.61375,0.70525,0.58375,0.883,0.8222499999999999,0.7945,0.74,0.75275,0.7022499999999999,0.4953114214410875,0.5037328094302554,0.5534274942919344,0.5008667179872663,0.49780431439460393,0.19135561185074793,0.693549464534186,0.4428684670505039
0.64075,0.637,0.67675,0.61375,0.7055,0.58375,0.8835,0.8220000000000001,0.79525,0.74,0.753,0.7020000000000001,0.4952636329846546,0.5038177666861361,0.5537142250305315,0.5010593219844366,0.4990369799764938,0.19135561185074793,0.693549464534186,0.4428684670505039
0.6405,0.6367499999999999,0.677,0.61375,0.70575,0.58375,0.884,0.82175,0.7959999999999999,0.74,0.75325,0.70175,0.49529549195560985,0.5037699782297032,0.5536717464025912,0.5012711863624966,0.5006741140089234,0.19135561185074793,0.693549464534186,0.4428684670505039
0.6402500000000001,0.6365,0.6772499999999999,0.61375,0.706,0.58375,0.8845000000000001,0.8215,0.79675,0.74,0.7535,0.7015,0.49527425264163966,0.5037540487442256,0.553639887431636,0.5015023111591009,0.5021956856053961,0.19135561185074793,0.693549464534186,0.4428684670505039
0.64,0.636,0.677,0.6132500000000001,0.70575,0.583,0.8847499999999999,0.821,0.79625,0.74,0.754,0.70125,0.49514681675781874,0.5038761747995539,0.5538788297138002,0.5013289675616477,0.5033513095695905,0.19697256089933646,0.6997616316113259,0.4428272270915619
0.64,0.63575,0.6765000000000001,0.61275,0.70525,0.58225,0.8845000000000001,0.82075,0.795,0.74,0.75425,0.70125,0.4951361971008336,0.5038390060001062,0.5539584771411883,0.5015408319397077,0.5022342063860028,0.20405809419156623,0.7098581533067878,0.44743796745106446
0.64,0.6355,0.6759999999999999,0.61225,0.70475,0.5815,0.88425,0.8205,0.79375,0.74,0.7545000000000001,0.70125,0.49526894281314715,0.5039027239420166,0.5539797164551585,0.500885978368156,0.5024075499646287,0.2111500733225138,0.7114187688227225,0.4541618627075431
0.63975,0.635,0.6757500000000001,0.61175,0.7042499999999999,0.5802499999999999,0.8835,0.81975,0.7927500000000001,0.7397499999999999,0.7547499999999999,0.7015,0.4952264641852068,0.5039398927414644,0.5540009557691287,0.500019260399717,0.5028120183398589,0.2111500733225138,0.7114187688227225,0.4541618627075431
0.6395000000000001,0.6345000000000001,0.6755,0.61125,0.70375,0.579,0.88275,0.8190000000000001,0.79175,0.7395,0.755,0.70175,0.49518929538575907,0.5038655551425689,0.5540168852546062,0.49963405240537645,0.5028312787207486,0.21619366909680018,0.6982346044339978,0.46320671654262424
0.63925,0.63425,0.6757500000000001,0.61125,0.70375,0.5785,0.88225,0.8184999999999999,0.792,0.73925,0.755,0.7020000000000001,0.49509371847289335,0.5038921042850316,0.5539956459406361,0.4993836672090551,0.5032742679142403,0.2622722022081824,0.5748722730720374,0.48356213041527146
0.6385000000000001,0.63375,0.67525,0.61075,0.70325,0.57775,0.88125,0.8175,0.7925,0.7395,0.75625,0.706,0.49505654967344553,0.5038761747995539,0.5540221950830988,0.4989214176346737,0.5030624035361804,0.26379559804824276,0.5888408522790549,0.48397430011866327
0.63775,0.63325,0.67475,0.61025,0.7027500000000001,0.5770000000000001,0.8802500000000001,0.8165,0.7929999999999999,0.7397499999999999,0.7575,0.71,0.49499814156002764,0.5038177666861361,0.5540434343970689,0.4991910632118848,0.501714175593643,0.26938353140803645,0.5950513823098752,0.4864975118936819
0.63725,0.633,0.674,0.60975,0.7022499999999999,0.57675,0.8797499999999999,0.816,0.79325,0.7402500000000001,0.75875,0.71375,0.4950618595019381,0.5038336961716137,0.5541283916529496,0.49963405240537645,0.5005585516106212,0.26938353140803645,0.5950513823098752,0.4864975118936819
0.6367499999999999,0.63275,0.67325,0.60925,0.70175,0.5765,0.87925,0.8155,0.7935,0.74075,0.76,0.7175,0.49512026761535605,0.5038867944565391,0.5541390113099347,0.49953775040679127,0.49984591683991847,0.26938353140803645,0.5950513823098752,0.4864975118936819
0.63625,0.63225,0.6727500000000001,0.60875,0.7015,0.57625,0.8797499999999999,0.81525,0.794,0.742,0.7615000000000001,0.72275,0.49512026761535605,0.5038867944565391,0.5542186587373228,0.49963405240537645,0.4986710324383523,0.28573840044961957,0.5181971805921611,0.45282153547227594
0.63625,0.632,0.6729999999999999,0.60875,0.70175,0.57625,0.88075,0.8155,0.79425,0.74275,0.7617499999999999,0.72425,0.49514681675781874,0.5038390060001062,0.5542239685658154,0.49996147920056594,0.4979776580485393,0.28573840044961957,0.5181971805921611,0.45282153547227594
0.63625,0.6317499999999999,0.67325,0.60875,0.7020000000000001,0.57625,0.8817499999999999,0.81575,0.7945,0.7434999999999999,0.762,0.72575,0.4950353103594754,0.5038549354855838,0.554123081824457,0.5003081663954725,0.4971109400047909,0.281744792261288,0.5383680949687164,0.44082520016385796
0.63625,0.6315,0.67375,0.60875,0.7027500000000001,0.57675,0.88325,0.8165,0.79475,0.7440000000000001,0.762,0.72625,0.4949928317315351,0.5038018372006584,0.5540009557691287,0.500635593190662,0.495878274422901,0.28530690583812107,0.5523284793144513,0.43556579318803607
0.63625,0.63125,0.67425,0.60875,0.7034999999999999,0.57725,0.8847499999999999,0.8172499999999999,0.795,0.7445,0.762,0.72675,0.4949609727605798,0.5037381192587479,0.5539956459406361,0.5010785823841536,0.4946456088410111,0.2879286487454609,0.5608381638638107,0.4040512689907436
0.63625,0.63125,0.6745,0.60875,0.7040000000000001,0.57775,0.8852500000000001,0.8177500000000001,0.795,0.74425,0.7617499999999999,0.72575,0.49509902830138586,0.5036797111453301,0.5539903361121435,0.5013289675804751,0.49389445330852905,0.28442134676504693,0.584885237997405,0.39583233453058464
0.63625,0.63125,0.67475,0.60875,0.7045,0.57825,0.88575,0.81825,0.795,0.7440000000000001,0.7615000000000001,0.7247499999999999,0.49516274624329637,0.5036637816598524,0.5539213083417406,0.5015986131765134,0.49356702645685746,0.28442134676504693,0.584885237997405,0.39583233453058464
0.63625,0.63125,0.675,0.60875,0.705,0.57875,0.88625,0.81875,0.795,0.74375,0.76125,0.72375,0.49523177401369933,0.5035894440609568,0.5539106886847555,0.5018489983728348,0.4934129432591212,0.28442134676504693,0.584885237997405,0.39583233453058464
0.6365,0.632,0.6759999999999999,0.60925,0.70575,0.58,0.8867499999999999,0.81975,0.7959999999999999,0.74375,0.76125,0.72225,0.49526894281314715,0.5035735145754792,0.5539000690277704,0.501964560771137,0.49375963041637305,0.28442134676504693,0.584885237997405,0.39583233453058464
0.6367499999999999,0.63275,0.677,0.60975,0.7065,0.58125,0.88725,0.82075,0.797,0.74375,0.76125,0.72075,0.49537513938299793,0.5036213030319121,0.5538098019433972,0.5020608627508948,0.4940870571927352,0.28442134676504693,0.584885237997405,0.39583233453058464
0.637,0.6335000000000001,0.6779999999999999,0.61025,0.7072499999999999,0.5825,0.88775,0.82175,0.7979999999999999,0.74375,0.76125,0.71925,0.49536982955450537,0.5037593585727181,0.5539478574842033,0.5022342063295208,0.4947226503645698,0.28442134676504693,0.584885237997405,0.39583233453058464
0.63725,0.63425,0.679,0.61075,0.708,0.58375,0.88825,0.8227500000000001,0.799,0.74375,0.76125,0.7177500000000001,0.495385759039983,0.5038549354855838,0.5540062655976212,0.5024268102890364,0.4953389831555148,0.2495541419007648,0.6996854511793545,0.3385201463763808
0.6375,0.635,0.68,0.61125,0.70875,0.585,0.88875,0.82375,0.8,0.74375,0.76125,0.71625,0.4954282376679233,0.5038655551425689,0.5539478574842033,0.502638674704751,0.49603235762063724,0.24803719189942222,0.691147099060032,0.3372532697204763
0.6375,0.635,0.68,0.61125,0.70875,0.585,0.88875,0.82375,0.8,0.74375,0.76125,0.71625,0.4955025752668189,0.5038602453140764,0.5538735198853078,0.5029661015187679,0.49666795084895393,0.24803719189942222,0.691147099060032,0.3372532697204763
0.6375,0.635,0.68,0.61125,0.70875,0.585,0.88875,0.82375,0.8,0.74375,0.76125,0.71625,0.4956777996070727,0.5039611320554346,0.5539000690277704,0.5032935283704394,0.49780431445108597,0.24803719189942222,0.691147099060032,0.3372532697204763
0.6385000000000001,0.63575,0.68025,0.61175,0.70975,0.58625,0.8895000000000001,0.8240000000000001,0.8005,0.7452500000000001,0.7615000000000001,0.71675,0.49561939149365475,0.5038390060001062,0.5537301545160092,0.5025616332000196,0.498690292819242,0.23791454509971338,0.6795014308025575,0.32821581608940187
0.6395000000000001,0.6365,0.6805,0.61225,0.71075,0.5875,0.8902500000000001,0.8242499999999999,0.8009999999999999,0.74675,0.7617499999999999,0.7172499999999999,0.4955185047522965,0.5037912175436733,0.5536664365740986,0.501656394450974,0.499518490044729,0.23995003677893897,0.6833751253604331,0.32317267871363453
0.6405,0.63725,0.6807500000000001,0.61275,0.71175,0.58875,0.8909999999999999,0.8245,0.8015000000000001,0.7482500000000001,0.762,0.7177500000000001,0.4955609833802368,0.5038867944565391,0.553639887431636,0.5005392912297315,0.5001540831977362,0.23995003677893897,0.6833751253604331,0.32317267871363453
0.64225,0.63875,0.6809999999999999,0.61375,0.7125,0.5902499999999999,0.89275,0.82525,0.802,0.7505,0.763,0.723,0.4954919556098338,0.5039027239420166,0.553512451547815,0.4993644068281654,0.5003852079943406,0.19950779650867517,0.6507069608605818,0.24674911091013704
0.644,0.6402500000000001,0.68125,0.61475,0.71325,0.59175,0.8945000000000001,0.826,0.8025,0.75275,0.764,0.7282500000000001,0.49531673126958,0.5038018372006584,0.5534221844634418,0.4981317412086208,0.5000770415988681,0.20205861008461323,0.6243148563927597,0.23710377483609094
0.6447499999999999,0.6409999999999999,0.68125,0.61525,0.713,0.5920000000000001,0.8955,0.8265,0.8025,0.7535,0.7647499999999999,0.733,0.4954123081824457,0.5037752880581957,0.5532416502946955,0.4981317412086208,0.499980739600283,0.19548517263154874,0.6181002337461402,0.2314381220407813
0.6455,0.6417499999999999,0.68125,0.61575,0.7127500000000001,0.59225,0.8965000000000001,0.8270000000000001,0.8025,0.75425,0.7655,0.73775,0.4955875325226995,0.5037274996017629,0.5531620028673074,0.4982087828074889,0.4998651772019808,0.19548517263154874,0.6181002337461402,0.2314381220407813
0.64575,0.6417499999999999,0.6809999999999999,0.61575,0.71175,0.59175,0.8955,0.8265,0.802,0.7535,0.7659999999999999,0.74,0.49553974406626666,0.5037274996017629,0.553326607550576,0.5000000000376547,0.49984591680226376,0.19548517263154874,0.6181002337461402,0.2314381220407813
0.6452500000000001,0.6409999999999999,0.6807500000000001,0.61525,0.711,0.591,0.8935,0.8255,0.8015000000000001,0.752,0.76575,0.7375,0.4956034620081771,0.5036478521743748,0.5536186481176658,0.5017912172301658,0.500019260399717,0.19548517263154874,0.6181002337461402,0.2314381220407813
0.6447499999999999,0.6402500000000001,0.6805,0.61475,0.71025,0.5902499999999999,0.8915000000000001,0.8245,0.8009999999999999,0.7505,0.7655,0.735,0.4955450538947592,0.5036053735464344,0.5539319279987256,0.5037557780766122,0.5004044683940576,0.19548517263154874,0.6181002337461402,0.2314381220407813
0.64425,0.6395000000000001,0.68025,0.61425,0.7095,0.5895,0.8895000000000001,0.8234999999999999,0.8005,0.7490000000000001,0.7652500000000001,0.7325,0.4955078850953114,0.5037540487442256,0.5542398980512929,0.5053351309098907,0.5008667179872663,0.1853786435668226,0.606441459488424,0.21592066229723667
0.64375,0.63875,0.68,0.61375,0.70875,0.58875,0.8875,0.8225,0.8,0.7475,0.765,0.73,0.49547071629586364,0.5039080337705092,0.5544894599904423,0.5067026193274544,0.5014637903784942,0.15382529020490224,0.6088069625313319,0.261677883029686
0.64375,0.63875,0.68,0.61375,0.70875,0.58875,0.8875,0.8225,0.8,0.7475,0.765,0.73,0.49541761801093825,0.5039398927414644,0.5545266287898901,0.5061440676791785,0.5023690291463673,0.15830519832477485,0.5948727998157648,0.295070463130692
0.64375,0.63875,0.68,0.61375,0.70875,0.58875,0.8875,0.8225,0.8,0.7475,0.765,0.73,0.4952901821271173,0.5040673286252854,0.5544257420485318,0.5052195684927612,0.5031201847541588,0.15830519832477485,0.5948727998157648,0.295070463130692
0.64325,0.638,0.67975,0.6135,0.7077500000000001,0.5875,0.88575,0.821,0.7977500000000001,0.74575,0.7645000000000001,0.72875,0.4952530133276695,0.5041841448521213,0.5541921095948601,0.5031201848671228,0.503312788751329,0.15830519832477485,0.5948727998157648,0.295070463130692
0.64275,0.63725,0.6795,0.6132500000000001,0.70675,0.58625,0.884,0.8195,0.7955,0.7440000000000001,0.764,0.7275,0.49518929538575907,0.5041098072532257,0.5540275049115914,0.5011363636774415,0.5031587055535929,0.15830519832477485,0.5948727998157648,0.295070463130692
0.64225,0.6365,0.67925,0.613,0.70575,0.585,0.88225,0.818,0.79325,0.74225,0.7635,0.72625,0.49512557744384855,0.5039717517124197,0.5538522805713375,0.4994414484646882,0.5028120183586863,0.17140370747320247,0.5786148979978105,0.33079294876192167
0.6417499999999999,0.63575,0.679,0.61275,0.70475,0.58375,0.8805,0.8165,0.7909999999999999,0.7404999999999999,0.763,0.725,0.4951680560717889,0.5039239632559869,0.5537407741729942,0.49815100170247456,0.5022534667857198,0.30406749745891487,0.5337501317461175,0.4529853830848885
0.64125,0.6355,0.6785,0.613,0.70375,0.58175,0.87775,0.81475,0.7895,0.73925,0.76325,0.72725,0.49512557744384855,0.5038867944565391,0.5537938724579197,0.4972650232778365,0.501714175593643,0.30252798388387175,0.5283190957649467,0.45447232445355057
0.64125,0.636,0.67825,0.6135,0.70375,0.581,0.8767499999999999,0.8145,0.79025,0.7397499999999999,0.764,0.73075,0.49508309881590823,0.5037646684012106,0.5538894493707853,0.4974768876558965,0.5015408319773623,0.30252798388387175,0.5283190957649467,0.45447232445355057
0.64125,0.6365,0.6779999999999999,0.614,0.70375,0.5802499999999999,0.87575,0.8142499999999999,0.7909999999999999,0.7402500000000001,0.7647499999999999,0.73425,0.4950087612170127,0.5036797111453301,0.5539478574842033,0.4979391372114505,0.5016178735762304,0.30252798388387175,0.5283190957649467,0.45447232445355057
0.64125,0.637,0.6777500000000001,0.6145,0.70375,0.5795,0.8747499999999999,0.8140000000000001,0.79175,0.74075,0.7655,0.73775,0.4948919449901768,0.5036903308023151,0.5539637869696808,0.4988636363978679,0.5009052388055277,0.30254088183768396,0.5190061607349337,0.4553313248266316
0.6415000000000001,0.638,0.6777500000000001,0.6154999999999999,0.70375,0.5785,0.87375,0.8134999999999999,0.7929999999999999,0.74125,0.767,0.74275,0.4948335368767589,0.5036584718313598,0.5540328147400839,0.49992295836347717,0.5000963020174125,0.30254088183768396,0.5190061607349337,0.4553313248266316
0.6417499999999999,0.6385000000000001,0.6779999999999999,0.616,0.70375,0.57825,0.87375,0.81325,0.7935,0.74125,0.76775,0.74425,0.49487070567620667,0.5036478521743748,0.5539797164551585,0.5008859783869833,0.4994029276275994,0.30254088183768396,0.5190061607349337,0.4553313248266316
0.642,0.639,0.67825,0.6164999999999999,0.70375,0.578,0.87375,0.813,0.794,0.74125,0.7685,0.74575,0.4948600860192216,0.5037115701162852,0.5539637869696808,0.5019453003525927,0.49884437605463294,0.30254088183768396,0.5190061607349337,0.4553313248266316
0.64225,0.6395000000000001,0.6785,0.617,0.70375,0.57775,0.87375,0.8127500000000001,0.7945,0.74125,0.76925,0.74725,0.4949184941326395,0.5037805978866883,0.5539637869696808,0.50265793516095,0.4981510016648199,0.2726398850248154,0.49413700045832487,0.4332967915095345
0.6425,0.64,0.67875,0.6175,0.70375,0.5775,0.87375,0.8125,0.795,0.74125,0.77,0.74875,0.4949397334466097,0.5038336961716137,0.553974406626666,0.5027542371783625,0.49832434524344577,0.26909067567817097,0.49879264463532946,0.4349871381623975
0.6425,0.64,0.67875,0.6175,0.70375,0.5775,0.87375,0.8125,0.795,0.74125,0.77,0.74875,0.49495035310359475,0.5038443158285988,0.5539797164551585,0.5026771955794944,0.49851694924061607,0.268069703781011,0.5057753020073606,0.43288264319171177
0.6425,0.64,0.67875,0.6175,0.70375,0.5775,0.87375,0.8125,0.795,0.74125,0.77,0.74875,0.49489725481866936,0.5038708649710615,0.5540115754261138,0.5024268103643457,0.49861325122037387,0.268069703781011,0.5057753020073606,0.43288264319171177
0.642,0.63925,0.6785,0.6175,0.7034999999999999,0.57725,0.8734999999999999,0.8122499999999999,0.79525,0.7415,0.7697499999999999,0.74725,0.49492380396113206,0.5038708649710615,0.554123081824457,0.5019453003902473,0.49878659481782717,0.268069703781011,0.5057753020073606,0.43288264319171177
0.6415000000000001,0.6385000000000001,0.67825,0.6175,0.70325,0.5770000000000001,0.8732500000000001,0.812,0.7955,0.74175,0.7695000000000001,0.74575,0.49495035310359475,0.5038230765146285,0.5542186587373228,0.5015215715776453,0.4992681048107529,0.268069703781011,0.5057753020073606,0.43288264319171177
0.6409999999999999,0.63775,0.6779999999999999,0.6175,0.703,0.57675,0.873,0.81175,0.7957500000000001,0.742,0.76925,0.74425,0.49503000053098284,0.5038390060001062,0.5542823766792333,0.5010978427650433,0.4998651772019808,0.26857857356262915,0.5243995253913829,0.4362369633875578
0.6405,0.637,0.6777500000000001,0.6175,0.7027500000000001,0.5765,0.87275,0.8115000000000001,0.7959999999999999,0.74225,0.769,0.74275,0.4949556629320873,0.5038602453140764,0.5542770668507407,0.5007511555889641,0.5004622495932087,0.26857857356262915,0.5243995253913829,0.4362369633875578
0.64,0.63625,0.6775,0.6175,0.7025,0.57625,0.8725,0.81125,0.79625,0.7425,0.76875,0.74125,0.4949715924175649,0.5038814846280465,0.5541549407954123,0.500674113990096,0.5009630199858515,0.2751165432118044,0.5368287803143063,0.4562088649099483
0.64,0.63575,0.67675,0.6164999999999999,0.7022499999999999,0.5760000000000001,0.87275,0.8107500000000001,0.7959999999999999,0.7425,0.76925,0.74125,0.49498221207455,0.5038921042850316,0.5540275049115914,0.5008089367881152,0.5004815099929257,0.2751165432118044,0.5368287803143063,0.4562088649099483
0.64,0.63525,0.6759999999999999,0.6154999999999999,0.7020000000000001,0.57575,0.873,0.81025,0.7957500000000001,0.7425,0.7697499999999999,0.74125,0.494913184304147,0.5039398927414644,0.5540115754261138,0.5009244991864175,0.4999229584011319,0.2751165432118044,0.5368287803143063,0.4562088649099483
0.64,0.63475,0.67525,0.6145,0.70175,0.5755,0.8732500000000001,0.80975,0.7955,0.7425,0.7702500000000001,0.74125,0.4949291137896246,0.5039239632559869,0.5539903361121435,0.5008859783869833,0.4992681047919255,0.27566088707368824,0.480164328635508,0.4405163715388281
0.64,0.63425,0.6745,0.6135,0.7015,0.57525,0.8734999999999999,0.80925,0.79525,0.7425,0.77075,0.74125,0.4949344236181171,0.5039186534274943,0.5538894493707853,0.5007126347895301,0.4986710324006976,0.27412459327981586,0.47862091173561444,0.4434476602486372
0.64,0.63375,0.67375,0.6125,0.70125,0.575,0.87375,0.80875,0.795,0.7425,0.77125,0.74125,0.4949715924175649,0.5039239632559869,0.5540381245685765,0.5004237287937746,0.4978235748131483,0.27412459327981586,0.47862091173561444,0.4434476602486372
0.63975,0.63375,0.67375,0.612,0.70125,0.575,0.87275,0.809,0.7945,0.742,0.7705,0.74,0.4950406201879679,0.5038761747995539,0.5539797164551585,0.5001155623983021,0.49707241928066626,0.27412459327981586,0.47862091173561444,0.4434476602486372
0.6395000000000001,0.63375,0.67375,0.6114999999999999,0.70125,0.575,0.87175,0.80925,0.794,0.7415,0.7697499999999999,0.73875,0.4953061116125949,0.503955822226942,0.5541283916529496,0.49974961480367863,0.4964175656526325,0.2811972286182335,0.48406751891619065,0.4568843285300384
0.63925,0.63375,0.67375,0.611,0.70125,0.575,0.87075,0.8095,0.7935,0.741,0.769,0.7375,0.4954069983539532,0.504003610683375,0.5542452078797855,0.49921032363042916,0.4962249616931169,0.2811972286182335,0.48406751891619065,0.4568843285300384
0.63875,0.63375,0.674,0.61075,0.7020000000000001,0.575,0.87075,0.8095,0.7922499999999999,0.7397499999999999,0.76825,0.73625,0.49547071629586364,0.5039505123984496,0.5544204322200393,0.4982858244816664,0.49730354407727057,0.2821537170227094,0.449181310728099,0.48541633531131484
0.63825,0.63375,0.67425,0.6104999999999999,0.7027500000000001,0.575,0.87075,0.8095,0.7909999999999999,0.7384999999999999,0.7675,0.735,0.495385759039983,0.5037859077151808,0.5541283916529496,0.4970531588432945,0.49697611726325375,0.2806399930789141,0.45538937555975556,0.4828748243426571
0.638,0.63375,0.6745,0.61075,0.7034999999999999,0.575,0.87175,0.80925,0.79025,0.73775,0.7675,0.735,0.49502469070249033,0.5034566983486434,0.5540699835395316,0.49649460725150063,0.4968798152081865,0.2806399930789141,0.45538937555975556,0.4828748243426571
0.63775,0.63375,0.67475,0.611,0.7042499999999999,0.575,0.87275,0.809,0.7895,0.737,0.7675,0.735,0.4946901715074603,0.503207136409494,0.5537885626294271,0.4971302004233353,0.4959167952599898,0.2679923223345149,0.45149766386267914,0.470240001186584
0.63825,0.634,0.6757500000000001,0.61175,0.7055,0.57625,0.8759999999999999,0.81,0.7907500000000001,0.7384999999999999,0.768,0.73925,0.4945680454521319,0.5029150958424042,0.5533372272075612,0.49890215712199254,0.4940100156691765,0.2679923223345149,0.45149766386267914,0.470240001186584
0.639,0.63425,0.6765000000000001,0.61225,0.706,0.5775,0.87825,0.81125,0.7927500000000001,0.74075,0.7685,0.7434999999999999,0.49442998991132586,0.5028195189295386,0.5531301438963522,0.5004815098611343,0.4899845921471447,0.187230356664261,0.41486650874305514,0.31206885531445233
0.63975,0.6345000000000001,0.6772499999999999,0.61275,0.7065,0.57875,0.8805,0.8125,0.79475,0.743,0.769,0.74775,0.49455742579514683,0.5028460680720013,0.553246960123188,0.5029275806440243,0.4873459172541202,0.187230356664261,0.41486650874305514,0.31206885531445233
0.6405,0.63475,0.6779999999999999,0.6132500000000001,0.7070000000000001,0.58,0.88275,0.81375,0.79675,0.7452500000000001,0.7695000000000001,0.752,0.4949715924175649,0.5030372218977327,0.5534168746349493,0.5050462246128976,0.48534283568354913,0.187230356664261,0.41486650874305514,0.31206885531445233
0.6415000000000001,0.63525,0.679,0.614,0.70825,0.58275,0.8847499999999999,0.81575,0.7985,0.74625,0.76925,0.7497499999999999,0.49509371847289335,0.5030903201826581,0.5532947485796209,0.5052195681915235,0.48432203459268336,0.15839869750625377,0.38766215966950546,0.27108930408995774
0.6417499999999999,0.6355,0.67925,0.61425,0.7090000000000001,0.5842499999999999,0.8845000000000001,0.8165,0.79825,0.745,0.7685,0.7432500000000001,0.49507247915892316,0.5031965167525089,0.5538204216003824,0.5047765790545139,0.4833397541129781,0.176125425552452,0.6399210597005274,0.31156789379354777
0.642,0.63575,0.6795,0.6145,0.70975,0.58575,0.88425,0.8172499999999999,0.7979999999999999,0.74375,0.76775,0.73675,0.49539637869696806,0.5032496150374343,0.5543301651356661,0.5054121722263485,0.4836671807387214,0.18928197235484587,0.670203238819106,0.32918400036666956
0.64225,0.636,0.67975,0.61475,0.7105,0.58725,0.884,0.818,0.7977500000000001,0.7425,0.767,0.7302500000000001,0.4956831094355652,0.5033982902352254,0.5546115860457708,0.5057395990027107,0.48507319004985605,0.18928197235484587,0.670203238819106,0.32918400036666956
0.6425,0.63625,0.68,0.615,0.71125,0.58875,0.88375,0.81875,0.7975,0.74125,0.76625,0.72375,0.4959963893166251,0.5036425423458822,0.5546806138161737,0.5053158701712813,0.4869799695653599,0.18928197235484587,0.670203238819106,0.32918400036666956
0.64225,0.63625,0.6807500000000001,0.615,0.711,0.58875,0.88275,0.8190000000000001,0.7979999999999999,0.7404999999999999,0.7659999999999999,0.7172499999999999,0.496123825200446,0.5036000637179419,0.5549301757553231,0.5034283510366672,0.4913520802446435,0.18928197235484587,0.670203238819106,0.32918400036666956
0.642,0.63625,0.6815000000000001,0.615,0.71075,0.58875,0.8817499999999999,0.8192499999999999,0.7985,0.7397499999999999,0.76575,0.71075,0.49619285297084903,0.5037328094302554,0.5546593745022036,0.5014252694660961,0.4960323574700184,0.21204907011778334,0.7400788950399567,0.3610755828307459
0.6417499999999999,0.63625,0.6822499999999999,0.615,0.7105,0.58875,0.88075,0.8195,0.799,0.7390000000000001,0.7655,0.7042499999999999,0.4961078957149684,0.5038549354855838,0.5542398980512929,0.4989599383023163,0.49984591680226376,0.21204907011778334,0.7400788950399567,0.3610755828307459
0.6415000000000001,0.63625,0.6829999999999999,0.615,0.71025,0.58875,0.8797499999999999,0.81975,0.7995,0.7382500000000001,0.7652500000000001,0.6977500000000001,0.4958955025752668,0.5038549354855838,0.5540806031965168,0.49630200317902096,0.5028697996143194,0.21204907011778334,0.7400788950399567,0.3610755828307459
0.64075,0.63575,0.68375,0.6145,0.70975,0.588,0.87825,0.8192499999999999,0.8,0.737,0.7645000000000001,0.69025,0.49564063080762494,0.5037593585727181,0.554181489937875,0.4937596304916825,0.5052580892545405,0.3140740815034443,0.8559150503923783,0.5490661942481316
0.6402500000000001,0.63525,0.68375,0.614,0.7095,0.58725,0.87775,0.8184999999999999,0.8,0.7365,0.764,0.6892499999999999,0.4955556735517443,0.5038283863431211,0.5542717570222482,0.49377889087257215,0.5048921416410895,0.31963944501316094,0.8334073005428783,0.5451063795006051
0.63975,0.63475,0.68375,0.6135,0.7092499999999999,0.5865,0.87725,0.8177500000000001,0.8,0.736,0.7635,0.68825,0.4955716030372219,0.5037805978866883,0.5541337014814421,0.49406779688715496,0.5042180276321662,0.31963944501316094,0.8334073005428783,0.5451063795006051
0.63925,0.6335000000000001,0.68325,0.613,0.70825,0.58475,0.8765000000000001,0.81675,0.7995,0.735,0.76325,0.688,0.49570965857802796,0.503807147029151,0.5543620241066214,0.4940100157444859,0.5049884436208474,0.31963944501316094,0.8334073005428783,0.5451063795006051
0.63875,0.63225,0.6827500000000001,0.6125,0.7072499999999999,0.583,0.87575,0.81575,0.799,0.7340000000000001,0.763,0.6877500000000001,0.49566717995008763,0.503552275261509,0.5544735305049647,0.49372110972990313,0.5063174111071856,0.31963944501316094,0.8334073005428783,0.5451063795006051
0.63875,0.6315,0.6822499999999999,0.6125,0.7065,0.5820000000000001,0.8755,0.8155,0.7985,0.7334999999999999,0.76325,0.6884999999999999,0.4955185047522965,0.5034195295491956,0.5542452078797855,0.49404853650626523,0.507415253872229,0.3394306804273796,0.7860705269406547,0.5409567413480576
0.63875,0.63075,0.68175,0.6125,0.70575,0.581,0.8752500000000001,0.81525,0.7979999999999999,0.733,0.7635,0.6892499999999999,0.4954760261243562,0.5033929804067329,0.5539637869696808,0.4943952237388265,0.5081856697856008,0.3394306804273796,0.7860705269406547,0.5409567413480576
0.63875,0.63,0.68125,0.6125,0.705,0.58,0.875,0.815,0.7975,0.7325,0.76375,0.69,0.49532735092656505,0.5033982902352254,0.554123081824457,0.49433744252084805,0.5086093986170301,0.3221096510850556,0.6883011132926091,0.5690157702493304
0.63875,0.63,0.68125,0.6125,0.705,0.58,0.875,0.815,0.7975,0.7325,0.76375,0.69,0.4949928317315351,0.5032496150374343,0.5538204216003824,0.49451078609947396,0.5076271182126343,0.3221096510850556,0.6883011132926091,0.5690157702493304
0.639,0.63025,0.6809999999999999,0.6125,0.70475,0.5795,0.8745,0.81475,0.7977500000000001,0.733,0.76375,0.6920000000000001,0.49503000053098284,0.5033876705782403,0.5538575903998301,0.494953775311793,0.5071648686194256,0.3221096510850556,0.6883011132926091,0.5690157702493304
0.63925,0.6305,0.6807500000000001,0.6125,0.7045,0.579,0.8740000000000001,0.8145,0.7979999999999999,0.7334999999999999,0.76375,0.6940000000000001,0.4948866351616843,0.5033664312642702,0.5538894493707853,0.495204160489287,0.5070300458025789,0.3221096510850556,0.6883011132926091,0.5690157702493304
0.6395000000000001,0.63075,0.6805,0.6125,0.7042499999999999,0.5785,0.8734999999999999,0.8142499999999999,0.79825,0.7340000000000001,0.76375,0.696,0.49482822704826634,0.5032920936653746,0.5539797164551585,0.49545454566678104,0.5068374418430633,0.346844537253364,0.6332366047601551,0.6073208300749702
0.63975,0.631,0.68025,0.6125,0.7040000000000001,0.578,0.873,0.8140000000000001,0.7985,0.7345,0.76375,0.698,0.4948122975627887,0.5031274889821059,0.5539797164551585,0.496070878457726,0.5069144834419315,0.3690737432695119,0.484259217040227,0.6379732670480579
0.63975,0.63125,0.6795,0.61225,0.7034999999999999,0.5770000000000001,0.87275,0.8140000000000001,0.799,0.73575,0.764,0.70325,0.4948335368767589,0.5030159825837626,0.5540806031965168,0.49705315882446716,0.5070878270205574,0.3690737432695119,0.484259217040227,0.6379732670480579
0.6395000000000001,0.63125,0.679,0.612,0.70325,0.5765,0.873,0.8142499999999999,0.79925,0.7365,0.76425,0.7065,0.49464769287952,0.5029310253278819,0.5538629002283226,0.49811248082773113,0.5060092447117132,0.37008181721285976,0.47960520990954214,0.63943862171999
0.63925,0.63125,0.6785,0.61175,0.703,0.5760000000000001,0.8732500000000001,0.8145,0.7995,0.73725,0.7645000000000001,0.70975,0.4947432697923857,0.5029841236128073,0.553777942972442,0.49892141761584635,0.5045261939523292,0.37008181721285976,0.47960520990954214,0.63943862171999
0.639,0.63125,0.6779999999999999,0.6114999999999999,0.7027500000000001,0.5755,0.8734999999999999,0.81475,0.79975,0.738,0.7647499999999999,0.713,0.49472734030690807,0.5029097860139118,0.553777942972442,0.5002889060145828,0.5019067795908133,0.3700624734203299,0.4928041269745126,0.6516271882570348
0.63875,0.63125,0.677,0.61125,0.7027500000000001,0.57475,0.87425,0.815,0.79975,0.7384999999999999,0.7652500000000001,0.716,0.49474857962087826,0.5028673073859714,0.5537301545160092,0.5014252696167149,0.4994221880461438,0.3700624734203299,0.4928041269745126,0.6516271882570348
0.63875,0.63125,0.6765000000000001,0.61125,0.703,0.5745,0.8747499999999999,0.815,0.7995,0.7382500000000001,0.7655,0.71575,0.49472203047841556,0.5028779270429565,0.5537301545160092,0.5025616331811923,0.49705315886212187,0.3700624734203299,0.4928041269745126,0.6516271882570348
0.63875,0.63125,0.6759999999999999,0.61125,0.70325,0.5742499999999999,0.8752500000000001,0.815,0.79925,0.738,0.76575,0.7155,0.4947432697923857,0.5028938565284341,0.5536558169171135,0.5037750383821925,0.49470339005898956,0.3700624734203299,0.4928041269745126,0.6516271882570348
0.63875,0.63125,0.6755,0.61125,0.7034999999999999,0.574,0.87575,0.815,0.799,0.73775,0.7659999999999999,0.71525,0.49501938087399777,0.5029469548133595,0.5539690967981734,0.5050269643826267,0.4930662561018694,0.40246591805143517,0.32830249418932816,0.6783484332863856
0.63875,0.63125,0.675,0.61125,0.70375,0.57375,0.87625,0.815,0.79875,0.7375,0.76625,0.715,0.49530080178410235,0.5031274889821059,0.5541974194233527,0.5053543911589888,0.493644068131035,0.39891670242841426,0.3383867187780239,0.6739272133607219
0.63875,0.63125,0.675,0.61125,0.70375,0.57375,0.87625,0.815,0.79875,0.7375,0.76625,0.715,0.49529549195560985,0.503265544522912,0.5542292783943079,0.505431432757857,0.49462634846012143,0.39891670242841426,0.3383867187780239,0.6739272133607219
0.63875,0.63125,0.675,0.61125,0.70375,0.57375,0.87625,0.815,0.79875,0.7375,0.76625,0.715,0.49536451972601286,0.503276164179897,0.5541761801093825,0.5055277347376148,0.4955701080650832,0.39891670242841426,0.3383867187780239,0.6739272133607219
0.63875,0.63125,0.675,0.61125,0.70325,0.57375,0.87575,0.8145,0.7975,0.73675,0.7655,0.7127500000000001,0.4954069983539532,0.5033292624648223,0.5543407847926511,0.5054314326825476,0.4961671804751385,0.39891670242841426,0.3383867187780239,0.6739272133607219
0.63875,0.63125,0.675,0.61125,0.7027500000000001,0.57375,0.8752500000000001,0.8140000000000001,0.79625,0.736,0.7647499999999999,0.7105,0.49517867572877394,0.503265544522912,0.5540221950830988,0.5055469951185044,0.49603235765829196,0.39891670242841426,0.3383867187780239,0.6739272133607219
0.63875,0.63125,0.675,0.61125,0.7022499999999999,0.57375,0.8747499999999999,0.8134999999999999,0.795,0.7352500000000001,0.764,0.70825,0.49503000053098284,0.5032336855519567,0.5538098019433972,0.5058359011330873,0.4949537752741383,0.39690378059926573,0.3608829996736019,0.6659212516957798
0.63875,0.63125,0.675,0.61125,0.70175,0.57375,0.87425,0.813,0.79375,0.7345,0.76325,0.706,0.4950618595019381,0.5032124462379866,0.5539797164551585,0.5064714943049219,0.4937981513664259,0.39690378059926573,0.3608829996736019,0.6659212516957798
0.63875,0.63125,0.675,0.61125,0.70125,0.57375,0.87375,0.8125,0.7925,0.73375,0.7625,0.70375,0.49512557744384855,0.5032549248659268,0.5540381245685765,0.5069915251914184,0.4928543917614641,0.3888972204300727,0.502071176559153,0.6054904575831036
0.63875,0.6315,0.67525,0.6114999999999999,0.70175,0.5742499999999999,0.8732500000000001,0.8127500000000001,0.7907500000000001,0.733,0.7617499999999999,0.7025,0.4952636329846546,0.503276164179897,0.5539903361121435,0.507511556077915,0.492777350162596,0.3888972204300727,0.502071176559153,0.6054904575831036
0.63875,0.6317499999999999,0.6755,0.61175,0.7022499999999999,0.57475,0.87275,0.813,0.789,0.73225,0.7609999999999999,0.70125,0.4953804492114905,0.5033505017787926,0.5540221950830988,0.5078197224733875,0.49300847495920036,0.3888972204300727,0.502071176559153,0.6054904575831036
0.63875,0.632,0.6757500000000001,0.612,0.7027500000000001,0.57525,0.87225,0.81325,0.7872499999999999,0.7315,0.7602500000000001,0.7,0.4956087718366697,0.5034195295491956,0.5541337014814421,0.5078389828542771,0.4938174117096609,0.38840769444098444,0.5036170490285262,0.596239726856809
0.63875,0.6325,0.6759999999999999,0.612,0.7034999999999999,0.57625,0.872,0.81325,0.7859999999999999,0.73075,0.75875,0.6972499999999999,0.49565125046461,0.5035044868050762,0.5540593638825466,0.5072419104442218,0.49462634846012143,0.38840769444098444,0.5036170490285262,0.596239726856809
0.63875,0.633,0.67625,0.612,0.7042499999999999,0.57725,0.87175,0.81325,0.78475,0.73,0.75725,0.6945,0.4957999256624011,0.5036319226888971,0.5541549407954123,0.5067604003948141,0.49562788924540696,0.38840769444098444,0.5036170490285262,0.596239726856809
0.63875,0.63325,0.67625,0.61175,0.7045,0.57775,0.872,0.813,0.78525,0.73,0.7565000000000001,0.693,0.4958689534328041,0.5037009504593002,0.554308925821696,0.5062788903454063,0.4962634824172416,0.38840769444098444,0.5036170490285262,0.596239726856809
0.63875,0.6335000000000001,0.67625,0.6114999999999999,0.70475,0.57825,0.87225,0.8127500000000001,0.7857500000000001,0.73,0.75575,0.6915,0.49588488291828176,0.5037328094302554,0.5543726437636064,0.5055469951185044,0.49728428360224414,0.34040006678566764,0.5415597864001221,0.5049590196860323
0.63925,0.634,0.6772499999999999,0.6114999999999999,0.70525,0.58,0.87225,0.8127500000000001,0.7857500000000001,0.73125,0.755,0.6905,0.49569372909255033,0.503807147029151,0.5542345882228004,0.5050654851444061,0.49809322040918674,0.34040006678566764,0.5415597864001221,0.5049590196860323
0.63975,0.63425,0.67825,0.61175,0.7055,0.58125,0.872,0.813,0.78525,0.7325,0.755,0.691,0.49574151754898316,0.5038867944565391,0.5541496309669197,0.5048150999669121,0.4986325115824362,0.34040006678566764,0.5415597864001221,0.5049590196860323
0.6402500000000001,0.6345000000000001,0.67925,0.612,0.70575,0.5825,0.87175,0.81325,0.78475,0.73375,0.755,0.6915,0.4956087718366697,0.5039133435990018,0.5539106886847555,0.5042372879754011,0.49878659478017245,0.34040006678566764,0.5415597864001221,0.5049590196860323
0.64075,0.63475,0.68025,0.61225,0.706,0.58375,0.8715,0.8134999999999999,0.78425,0.735,0.755,0.6920000000000001,0.4954919556098338,0.5039186534274943,0.5537460840014867,0.5033898303878519,0.4988636363790406,0.3287701418808812,0.536883659884753,0.48751909218416595
0.64125,0.635,0.68125,0.61275,0.70675,0.58575,0.87075,0.81325,0.7857500000000001,0.7375,0.75625,0.69475,0.49537513938299793,0.5039983008548824,0.5536186481176658,0.5026386747800604,0.4984399076040933,0.2712003227463456,0.5569448054907304,0.37325425762445685
0.64125,0.635,0.68125,0.613,0.7072499999999999,0.5865,0.8702500000000001,0.8127500000000001,0.7877500000000001,0.73875,0.7575,0.6970000000000001,0.49539106886847556,0.5040248499973451,0.5535761694897254,0.5017912171736837,0.49786209559375505,0.2712003227463456,0.5569448054907304,0.37325425762445685
0.64125,0.635,0.68125,0.6132500000000001,0.7077500000000001,0.58725,0.8697499999999999,0.8122499999999999,0.78975,0.74,0.75875,0.6992499999999999,0.4954600966388786,0.5040620187967929,0.5535443105187703,0.5007318951704197,0.497630970815978,0.2712003227463456,0.5569448054907304,0.37325425762445685
