C0,C1,C2,C3,C4,C5,C6,C7,C8,C9,C10,C11,Ax,Ay,Az,Gr,Gp,Fx_norm,Fy_norm,Fz_norm
0.6425,0.64875,0.6825,0.62125,0.7025,0.5975,0.86875,0.795,0.7875,0.76875,0.76875,0.79375,0.499954222235786,0.510091453800063,0.5291451765495773,0.49907551217731605,0.4994637970523604,0.13605493856685155,0.642504265595646,0.0037544448924498822
0.6425,0.64875,0.6825,0.62125,0.7025,0.5975,0.86875,0.795,0.7875,0.76875,0.76875,0.79375,0.499954222235786,0.5101054414502396,0.5291337321085238,0.4990154204767038,0.4994175726603225,0.13605493856685155,0.642504265595646,0.0037544448924498822
0.6425,0.64875,0.6825,0.62125,0.7025,0.5975,0.86875,0.795,0.7875,0.76875,0.76875,0.79375,0.499938962981048,0.5101168858912931,0.5291268654438918,0.4990681162782048,0.49938983802509973,0.13605493856685155,0.642504265595646,0.0037544448924498822
0.6425,0.64875,0.6825,0.62125,0.7025,0.5975,0.86875,0.795,0.7875,0.76875,0.76875,0.79375,0.4998992889187292,0.5101748710592975,0.5291299172948393,0.4990126469969149,0.49934546260874335,0.13605493856685155,0.642504265595646,0.0037544448924498822
0.6425,0.64875,0.6825,0.62125,0.7025,0.5975,0.86875,0.79525,0.7877500000000001,0.76875,0.7685,0.7935,0.49989623706778163,0.5101718192083499,0.5291634876552629,0.49884623918557847,0.49923452405700797,0.13605493856685155,0.642504265595646,0.0037544448924498822
0.6425,0.64875,0.6825,0.62125,0.7025,0.5975,0.86875,0.7955,0.7879999999999999,0.76875,0.76825,0.79325,0.4999328592791528,0.5101382488479262,0.5291756950590533,0.498724206779754,0.4990792100889162,0.13605493856685155,0.642504265595646,0.0037544448924498822
0.6425,0.64875,0.6825,0.62125,0.7025,0.5975,0.86875,0.7957500000000001,0.78825,0.76875,0.768,0.7929999999999999,0.4999359111301004,0.5101016266365551,0.5292275765251625,0.49876858219611037,0.49903483468340426,0.13605493856685155,0.642504265595646,0.0037544448924498822
0.6425,0.64875,0.6825,0.62125,0.7025,0.5975,0.86875,0.7959999999999999,0.7885,0.76875,0.76775,0.7927500000000001,0.499954222235786,0.5100619525742363,0.5292794579912717,0.4987242067905984,0.49899045927789226,0.13605493856685155,0.642504265595646,0.0037544448924498822
0.6425,0.64875,0.6825,0.62125,0.7025,0.5975,0.86875,0.7959999999999999,0.78875,0.76875,0.7675,0.7925,0.499954222235786,0.5100009155552843,0.5293343913083285,0.4988018637800665,0.49892389616420213,0.13605493856685155,0.642504265595646,0.0037544448924498822
0.6425,0.64875,0.6825,0.62125,0.7025,0.5975,0.86875,0.7957500000000001,0.78875,0.76875,0.7675,0.7925,0.499954222235786,0.5099734488967559,0.5293252357554857,0.4990681162782048,0.49899045929958113,0.13605493856685155,0.642504265595646,0.0037544448924498822
0.6425,0.64875,0.6825,0.62125,0.7025,0.5975,0.86875,0.7955,0.78875,0.76875,0.7675,0.7925,0.4999664296395764,0.5099642933439131,0.5293343913083285,0.4994453073172341,0.49907921014313833,0.13605493856685155,0.642504265595646,0.0037544448924498822
0.6425,0.64875,0.6825,0.62125,0.7025,0.5975,0.86875,0.7955,0.7885,0.76875,0.7675,0.7925,0.499954222235786,0.5099673451948606,0.5293160802026429,0.49967827824226063,0.49915686711091756,0.13605493856685155,0.642504265595646,0.0037544448924498822
0.6425,0.64875,0.6825,0.62125,0.7025,0.5975,0.86875,0.7955,0.78825,0.76875,0.7675,0.7925,0.4999786370433668,0.5099673451948606,0.5292519913327434,0.49993343687546543,0.4993121810573205,0.13605493856685155,0.642504265595646,0.0037544448924498822
0.6425,0.64875,0.6825,0.62125,0.7025,0.5975,0.86875,0.7957500000000001,0.7879999999999999,0.76875,0.7675,0.7925,0.4999786370433668,0.5099734488967559,0.5292001098666341,0.5001220323949801,0.4995007765659907,0.13605493856685155,0.642504265595646,0.0037544448924498822
0.6425,0.64875,0.6825,0.62125,0.7025,0.5975,0.86875,0.7959999999999999,0.7877500000000001,0.76875,0.7675,0.7925,0.4999938962981048,0.5099673451948606,0.5291817987609485,0.5003217217685838,0.49960062125279253,0.13605493856685155,0.642504265595646,0.0037544448924498822
0.6425,0.64875,0.6825,0.62125,0.7025,0.5975,0.86875,0.79625,0.7875,0.76875,0.7675,0.7925,0.5000091555528428,0.5099917600024415,0.5291421246986298,0.5003882848931184,0.4996671843773271,0.13605493856685155,0.642504265595646,0.0037544448924498822
0.6425,0.64875,0.6825,0.62125,0.7025,0.5975,0.86875,0.79625,0.7875,0.76875,0.7675,0.7925,0.4999908444471572,0.5100405896176031,0.5290749839777825,0.5004326603094748,0.4996228089609707,0.13605493856685155,0.642504265595646,0.0037544448924498822
0.6425,0.64875,0.6825,0.62125,0.7025,0.5975,0.86875,0.79625,0.7875,0.76875,0.7675,0.7925,0.4999572740867336,0.5101199377422406,0.5290566728720969,0.5003771910390292,0.4994564011496343,0.13493182983720267,0.6425049314493079,0.004848133156357704
0.6425,0.64875,0.6827500000000001,0.62125,0.7025,0.5975,0.86875,0.7965000000000001,0.7877500000000001,0.76875,0.7675,0.7925,0.499938962981048,0.5101931821649831,0.5290353099154638,0.5000110938540892,0.49936765031692154,0.13493182983720267,0.6425049314493079,0.004848133156357704
0.6425,0.64875,0.6829999999999999,0.62125,0.7025,0.5975,0.86875,0.79675,0.7879999999999999,0.76875,0.7675,0.7925,0.499908444471572,0.5102511673329875,0.5290719321268349,0.4995340581174136,0.49930108719238697,0.13493182983720267,0.6425049314493079,0.004848133156357704
0.6425,0.64875,0.68325,0.62125,0.7025,0.5975,0.86875,0.797,0.78825,0.76875,0.7675,0.7925,0.49984130375072483,0.5102664265877255,0.5291085543382061,0.4991124916620279,0.49931218104647607,0.13493182983720267,0.6425049314493079,0.004848133156357704
0.6425,0.64875,0.6835,0.62125,0.7025,0.5975,0.86875,0.7972499999999999,0.7885,0.76875,0.7675,0.7925,0.49985045930356764,0.5102542191839351,0.5291879024628438,0.4986576436552194,0.49934546260874335,0.13493182983720267,0.6425049314493079,0.004848133156357704
0.6425,0.64875,0.68375,0.62125,0.7025,0.5975,0.86875,0.7975,0.78875,0.76875,0.7675,0.7925,0.4998290963469344,0.5101596118045595,0.5292214728232673,0.4983137341784574,0.4994120257332779,0.13492945145773078,0.6431377000178378,0.003755424775054039
0.6425,0.64875,0.6835,0.62125,0.7025,0.5975,0.86875,0.7975,0.78875,0.7685,0.7675,0.7922499999999999,0.4998596148564104,0.5101199377422406,0.5292123172704245,0.4982582649188564,0.4994009318791888,0.1375460760701908,0.6415584439695541,0.003285229292791131
0.6425,0.64875,0.68325,0.62125,0.7025,0.5975,0.86875,0.7975,0.78875,0.76825,0.7675,0.792,0.499862666707358,0.5101016266365551,0.5291451765495773,0.49824717107561173,0.49937874417101064,0.1375460760701908,0.6415584439695541,0.003285229292791131
0.6425,0.64875,0.6829999999999999,0.62125,0.7025,0.5975,0.86875,0.7975,0.78875,0.768,0.7675,0.79175,0.499908444471572,0.5100863673818171,0.5291024506363109,0.49818060795107716,0.49930108719238697,0.1375460760701908,0.6415584439695541,0.003285229292791131
0.6425,0.64875,0.6827500000000001,0.62125,0.7025,0.5975,0.86875,0.7975,0.78875,0.76775,0.7675,0.7915000000000001,0.4999572740867336,0.5100650044251839,0.5290902432325205,0.49790326160969417,0.4992234302137633,0.1375460760701908,0.6415584439695541,0.003285229292791131
0.64275,0.64875,0.6827500000000001,0.62125,0.7025,0.5975,0.86875,0.7975,0.78875,0.7675,0.76775,0.79125,0.500015259254738,0.5100985747856075,0.5291207617419965,0.49759263371688833,0.49915686708922874,0.1375460760701908,0.6415584439695541,0.003285229292791131
0.643,0.64875,0.6829999999999999,0.62125,0.7025,0.5975,0.86875,0.7975,0.78875,0.7675,0.768,0.79125,0.4999877925962096,0.5100802636799219,0.5291207617419965,0.497304193488883,0.49914577323513964,0.1345590443045685,0.642820984765135,0.003441566994043694
0.64325,0.64875,0.68325,0.62125,0.7025,0.5975,0.86875,0.7975,0.78875,0.7675,0.76825,0.79125,0.5000183111056856,0.5100802636799219,0.5291817987609485,0.4969935655743883,0.49913467938105055,0.13680050500492247,0.6453443938885695,0.005005641382696888
0.6435,0.64875,0.6835,0.62125,0.7025,0.5975,0.86875,0.7975,0.78875,0.7675,0.7685,0.79125,0.4999969481490524,0.5100466933194983,0.5292306283761101,0.49673840691949467,0.49913467938105055,0.13680050500492247,0.6453443938885695,0.005005641382696888
0.64375,0.64875,0.68375,0.62125,0.7025,0.5975,0.86875,0.7975,0.78875,0.7675,0.76875,0.79125,0.4999603259376812,0.5100466933194983,0.5292245246742149,0.49676059460598404,0.4992012425055851,0.13680050500492247,0.6453443938885695,0.005005641382696888
0.64375,0.64875,0.68375,0.62125,0.7025,0.5975,0.86875,0.7975,0.78875,0.7675,0.76875,0.79125,0.49992370372631,0.5100222785119175,0.5292153691213721,0.49679387613571807,0.4992567117760306,0.13754845444966268,0.6415574451890611,0.0031267510616966236
0.64375,0.649,0.6835,0.62125,0.7025,0.5975,0.86875,0.7972499999999999,0.7895,0.76775,0.7685,0.79125,0.4999664296395764,0.5099887081514939,0.5293160802026429,0.49706012863385635,0.4992678056301197,0.13754845444966268,0.6415574451890611,0.0031267510616966236
0.64375,0.64925,0.68325,0.62125,0.7025,0.5975,0.86875,0.797,0.79025,0.768,0.76825,0.79125,0.4999755851924192,0.5099337748344371,0.5293588061159094,0.49733747497523934,0.4992678056301197,0.13754845444966268,0.6415574451890611,0.0031267510616966236
0.64375,0.6495000000000001,0.6829999999999999,0.62125,0.7025,0.5975,0.86875,0.79675,0.7909999999999999,0.76825,0.768,0.79125,0.5000030518509476,0.5098849452192755,0.5293618579668569,0.4976813844628457,0.4992678056301197,0.13754845444966268,0.6415574451890611,0.0031267510616966236
0.64375,0.6497499999999999,0.6827500000000001,0.62125,0.7025,0.59775,0.86875,0.79675,0.79175,0.7685,0.768,0.79125,0.5000274666585284,0.5098147526474807,0.5293893246253853,0.498058575501875,0.4992123363705186,0.13305601953106713,0.6431363683105139,0.004539643986187673
0.64375,0.65,0.6825,0.62125,0.7025,0.598,0.86875,0.79675,0.7925,0.76875,0.768,0.79125,0.5000579851680044,0.509781182287057,0.5293862727744377,0.49844686040583774,0.49914577323513964,0.13530461536983684,0.6415581110427232,0.003916796228071503
0.64375,0.65,0.6825,0.62125,0.7025,0.5982500000000001,0.86875,0.797,0.7925,0.76875,0.76825,0.79125,0.5000244148075808,0.5097750785851619,0.5293618579668569,0.4986132682280186,0.49909030396469417,0.13493182983720267,0.6425049314493079,0.004070078710680259
0.64375,0.65,0.6825,0.62125,0.7025,0.5985,0.86875,0.7972499999999999,0.7925,0.76875,0.7685,0.79125,0.499984740745262,0.5097872859889523,0.5292733542893765,0.4987685822069548,0.49901264698607045,0.13493420821667457,0.6406116235629692,0.004383921674917354
0.64375,0.65,0.6825,0.621,0.7025,0.59875,0.8684999999999999,0.7975,0.7925,0.7685,0.769,0.79125,0.4999755851924192,0.5097994933927427,0.5292855616931669,0.49910139782962765,0.4988906145910904,0.13493420821667457,0.6406116235629692,0.004383921674917354
0.64375,0.65,0.6825,0.62075,0.7025,0.59875,0.8682500000000001,0.7975,0.7925,0.76825,0.76925,0.79125,0.499969481490524,0.5098239082003235,0.5292947172460097,0.49957843354461434,0.49877967602851064,0.13493420821667457,0.6406116235629692,0.004383921674917354
0.64375,0.65,0.6825,0.6204999999999999,0.7025,0.59875,0.868,0.7975,0.7925,0.76825,0.76925,0.79125,0.4999572740867336,0.5098574785607471,0.5293832209234901,0.5006656312670346,0.49864654977944145,0.13493420821667457,0.6406116235629692,0.004383921674917354
0.64375,0.65,0.6825,0.62025,0.7025,0.59875,0.86775,0.7975,0.7925,0.76825,0.76925,0.79125,0.5000091555528428,0.5098971526230659,0.5293557542649617,0.5017972043624335,0.4985134235303723,0.13493420821667457,0.6406116235629692,0.004383921674917354
0.64375,0.65,0.6825,0.62,0.7025,0.59875,0.8675,0.7975,0.7925,0.76825,0.76925,0.79125,0.5000396740623188,0.5098879970702231,0.5294045838801233,0.5030397159770346,0.4983802972813032,0.13493420821667457,0.6406116235629692,0.004383921674917354
0.64375,0.65,0.6825,0.62,0.7025,0.59875,0.8675,0.7975,0.7925,0.7685,0.769,0.79125,0.500045777764214,0.5099429303872799,0.5293893246253853,0.5041380075643883,0.4983802972813032,0.1360501818079077,0.642504265595646,0.004692413808442037
0.64375,0.65,0.6825,0.62,0.7025,0.59875,0.8675,0.7975,0.7925,0.76875,0.76875,0.79125,0.5000366222113712,0.5099948118533891,0.5293557542649617,0.5050587974646277,0.4983359218649468,0.13605493856685155,0.6428203189114731,0.003132098929054392
0.64375,0.65,0.6825,0.62,0.7025,0.59875,0.8675,0.7975,0.7925,0.76875,0.76875,0.79125,0.5000701925717947,0.5100314340647603,0.5292214728232673,0.5053916131089894,0.49844686042752656,0.1353069891221113,0.6387189815302926,0.003446610623657434
0.64375,0.65,0.6825,0.62,0.7025,0.59875,0.8675,0.7975,0.7925,0.76875,0.76875,0.79125,0.5000427259132664,0.5100650044251839,0.5292153691213721,0.5057577102830851,0.49855779896841756,0.1353069891221113,0.6387189815302926,0.003446610623657434
0.64375,0.65,0.6825,0.62025,0.7022499999999999,0.59875,0.86775,0.7972499999999999,0.7922499999999999,0.7685,0.76875,0.79125,0.500030518509476,0.5101290932950835,0.5292092654194769,0.5059906812514894,0.49870201906073136,0.1353069891221113,0.6387189815302926,0.003446610623657434
0.64375,0.65,0.6825,0.6204999999999999,0.7020000000000001,0.59875,0.868,0.797,0.792,0.76825,0.76875,0.79125,0.5000732444227424,0.5101138340403455,0.5292397839289529,0.5065897493072341,0.4988462391638896,0.13529985861089305,0.6440838545707607,0.004070895608778686
0.64375,0.65,0.6825,0.6204999999999999,0.7020000000000001,0.59875,0.8684999999999999,0.79675,0.79175,0.76825,0.769,0.7915000000000001,0.5000671407208472,0.5101657155064546,0.5292428357799005,0.5073219437421809,0.49909030396469417,0.13529985861089305,0.6440838545707607,0.004070895608778686
0.64375,0.65,0.6825,0.6204999999999999,0.7020000000000001,0.59875,0.8690000000000001,0.7965000000000001,0.7915000000000001,0.76825,0.76925,0.79175,0.5000183111056856,0.5102603228858302,0.5292580950346385,0.5080763257768618,0.4993343687438098,0.13529985861089305,0.6440838545707607,0.004070895608778686
0.64375,0.65,0.6825,0.6204999999999999,0.7020000000000001,0.59875,0.8695,0.79625,0.79125,0.76825,0.7695000000000001,0.792,0.5000427259132664,0.5103732413708915,0.5292214728232673,0.5086975816058511,0.49947858884696805,0.13529985861089305,0.6440838545707607,0.004070895608778686
0.64375,0.65,0.6825,0.62025,0.7022499999999999,0.59875,0.8697499999999999,0.79625,0.79125,0.7685,0.7697499999999999,0.7922499999999999,0.5000640888698996,0.5104953154087954,0.5291268654438918,0.5093410252080852,0.49960062125279253,0.13529985861089305,0.643766806391227,0.0032843985657043406
0.64375,0.65,0.6825,0.62,0.7025,0.59875,0.87,0.79625,0.79125,0.76875,0.77,0.7925,0.500030518509476,0.5105960264900662,0.5290200506607258,0.5094963391870214,0.49972265364777263,0.1364229673405419,0.6421892149770981,0.0029736453925819674
0.64375,0.65,0.6825,0.62,0.7025,0.59875,0.87,0.79625,0.79125,0.76875,0.77,0.7925,0.5000732444227424,0.5106845301675467,0.5289223914304025,0.5094297759540426,0.4997337475018617,0.1356750225229991,0.6412433933510062,0.0048544707841684616
0.64375,0.65,0.6825,0.62,0.7025,0.59875,0.87,0.79625,0.79125,0.76875,0.77,0.7925,0.5001159703360087,0.5107242042298654,0.5288674581133458,0.5092966496615957,0.4996339028150598,0.13643960674245034,0.6431360353836829,0.00407123441899363
0.64375,0.65,0.6825,0.62,0.7022499999999999,0.5985,0.87,0.79625,0.7909999999999999,0.76875,0.77,0.7927500000000001,0.500106814783166,0.5108005005035554,0.5287728507339702,0.5087641446653192,0.4995118704200798,0.13643960674245034,0.6431360353836829,0.00407123441899363
0.64375,0.65,0.6825,0.62,0.7020000000000001,0.5982500000000001,0.87,0.79625,0.7907500000000001,0.76875,0.77,0.7929999999999999,0.5001037629322184,0.5108737449262978,0.5287270729697562,0.5079875747706383,0.499367650327766,0.13643960674245034,0.6431360353836829,0.00407123441899363
0.64375,0.65,0.6827500000000001,0.62,0.7020000000000001,0.598,0.8697499999999999,0.79625,0.79125,0.76875,0.77,0.7935,0.5001251258888516,0.5110293893246254,0.5287179174169133,0.5072775681089361,0.4990681162782048,0.13643960674245034,0.6431360353836829,0.00407123441899363
0.64375,0.65,0.6829999999999999,0.62,0.7020000000000001,0.59775,0.8695,0.79625,0.79175,0.76875,0.77,0.794,0.5001098666341136,0.511108737449263,0.5287331766716513,0.5066674062099468,0.49885733303966756,0.13643960674245034,0.6431360353836829,0.00407123441899363
0.64375,0.65,0.68325,0.62,0.7020000000000001,0.5975,0.86925,0.79625,0.7922499999999999,0.76875,0.77,0.7945,0.500122074037904,0.5112063966795861,0.5287240211188086,0.5061238073704255,0.4987131129473537,0.13643960674245034,0.6431360353836829,0.00407123441899363
0.64375,0.65,0.6835,0.62,0.7020000000000001,0.5975,0.86925,0.79625,0.7929999999999999,0.7685,0.7697499999999999,0.79475,0.5001434369945372,0.5112399670400097,0.5287545396282846,0.5060350565377127,0.49867983139593086,0.1345590443045685,0.6431360353836829,0.0046946886770280975
0.64375,0.65,0.68375,0.62,0.7020000000000001,0.5975,0.86925,0.79625,0.79375,0.76825,0.7695000000000001,0.795,0.5001556443983276,0.5112949003570666,0.5288247322000793,0.5062458398196277,0.4986354559795745,0.1345590443045685,0.6431360353836829,0.0046946886770280975
0.64375,0.65,0.68375,0.62,0.70175,0.5975,0.8695,0.79625,0.79375,0.768,0.76925,0.795,0.5001495406964324,0.5113132114627521,0.5288430433057649,0.5064011537985639,0.49867983139593086,0.1345590443045685,0.6431360353836829,0.0046946886770280975
0.64375,0.65,0.68375,0.62,0.7015,0.5975,0.8697499999999999,0.79625,0.79375,0.76775,0.769,0.795,0.5001617481002227,0.5112704855494857,0.5291482284005249,0.5068227202756383,0.4987463945421543,0.1345590443045685,0.6431360353836829,0.0046946886770280975
0.64375,0.65,0.68375,0.62,0.70175,0.59775,0.8702500000000001,0.7975,0.79375,0.76775,0.76875,0.79475,0.49944151127658926,0.5117130039368877,0.5299752800073244,0.513578877578564,0.49280008844675516,0.13530223699036495,0.6402952412370975,0.004227105885781314
0.64375,0.65,0.68375,0.62,0.7022499999999999,0.598,0.8704999999999999,0.79875,0.79375,0.768,0.76875,0.7945,0.4985412152470473,0.5130008850367748,0.5311410870693075,0.5226758378014895,0.48678721946539866,0.13530223699036495,0.6402952412370975,0.004227105885781314
0.64375,0.65,0.68375,0.62,0.7027500000000001,0.5982500000000001,0.87075,0.8,0.79375,0.76825,0.76875,0.79425,0.497354045228431,0.5137241737113559,0.5325449385052035,0.5328599957902129,0.4813845125131646,0.13530223699036495,0.6402952412370975,0.004227105885781314
0.64375,0.65,0.68375,0.62,0.70325,0.5985,0.871,0.80125,0.79375,0.7685,0.76875,0.794,0.49649342326120793,0.515042573320719,0.534324167607654,0.5425893057721278,0.47482804447539845,0.13530223699036495,0.6402952412370975,0.004227105885781314
0.64375,0.65,0.68375,0.62,0.70375,0.59875,0.87125,0.8025,0.79375,0.76875,0.76875,0.79375,0.49519333475753047,0.5165257728812525,0.535947752311777,0.5526292430178721,0.46752828863659535,0.13529748485861856,0.6418738314317193,0.0034435267592520143
0.64375,0.65,0.68375,0.62,0.70375,0.59875,0.87125,0.8025,0.79375,0.76875,0.76875,0.79375,0.49473555711539047,0.5175115207373272,0.5366283150730918,0.5580985133765957,0.46469935626680836,0.13680050500492247,0.6425055973029699,0.004387497456194621
0.64375,0.65,0.68375,0.62,0.70375,0.59875,0.87125,0.8025,0.79375,0.76875,0.76875,0.79375,0.4944303720206305,0.5176000244148076,0.536863307596057,0.5632127807514897,0.4610383843523402,0.13680050500492247,0.6425055973029699,0.004387497456194621
0.64375,0.65,0.68375,0.62,0.70375,0.59875,0.87125,0.8025,0.79375,0.76875,0.76875,0.79375,0.4944303720206305,0.5182256538590655,0.536817529831843,0.5671954749008518,0.45681162582510604,0.13680050500492247,0.6425055973029699,0.004387497456194621
0.64425,0.6502500000000001,0.684,0.62025,0.70525,0.599,0.873,0.80525,0.79525,0.77125,0.7702500000000001,0.7957500000000001,0.4988647114474929,0.5176488540299692,0.534461500900296,0.5807743529131927,0.4520856442651062,0.13680050500492247,0.6425055973029699,0.004387497456194621
0.6447499999999999,0.6505,0.68425,0.6204999999999999,0.70675,0.59925,0.8747499999999999,0.8079999999999999,0.79675,0.77375,0.7717499999999999,0.7977500000000001,0.5037232581560717,0.5173162022766808,0.5323252052369762,0.5919014887055332,0.44769247782893584,0.13680050500492247,0.6425055973029699,0.004387497456194621
0.6452500000000001,0.65075,0.6845,0.62075,0.70825,0.5995,0.8765000000000001,0.8107500000000001,0.79825,0.77625,0.77325,0.79975,0.5088351084933012,0.5165166173284097,0.5304086428418836,0.594464168837448,0.4456955836157441,0.13680050500492247,0.6425055973029699,0.004387497456194621
0.64575,0.6509999999999999,0.68475,0.621,0.70975,0.59975,0.87825,0.8134999999999999,0.79975,0.77875,0.7747499999999999,0.80175,0.5145481734672078,0.5161564989165929,0.5283364360484634,0.5895052157885117,0.4452851113289357,0.13716853840581025,0.6406126223434622,0.005008231354660695
0.6465000000000001,0.65125,0.68525,0.6214999999999999,0.71175,0.60025,0.884,0.8192499999999999,0.8059999999999999,0.78525,0.7802500000000001,0.8072499999999999,0.5207281716360973,0.5162907803582873,0.5263527329325236,0.5821832719595754,0.4435988457676593,0.1360525601873796,0.6443975734819846,0.004383758690411624
0.6467499999999999,0.65125,0.6855,0.62175,0.7122499999999999,0.6004999999999999,0.888,0.8222499999999999,0.8107500000000001,0.78925,0.78425,0.8107500000000001,0.522507400738548,0.5170964690084536,0.5264992217780083,0.5668959405259579,0.44040381544297824,0.1371780472965004,0.6412413957900204,0.0040670076874783165
0.647,0.65125,0.6857500000000001,0.622,0.7127500000000001,0.60075,0.892,0.82525,0.8155,0.79325,0.78825,0.8142499999999999,0.5248054445020905,0.5175878170110172,0.5261574144718772,0.5548147336940432,0.43576658393489276,0.1371780472965004,0.6412413957900204,0.0040670076874783165
0.64725,0.65125,0.6859999999999999,0.62225,0.71325,0.601,0.8959999999999999,0.82825,0.82025,0.7972499999999999,0.7922499999999999,0.8177500000000001,0.5270058290353099,0.5184698019348735,0.5260628070925016,0.5505990694438306,0.42782338419021176,0.1371780472965004,0.6412413957900204,0.0040670076874783165
0.6475,0.65125,0.68625,0.6225,0.71375,0.60125,0.9009999999999999,0.8325,0.8255,0.8027500000000001,0.79625,0.8220000000000001,0.5276985992004151,0.5183721427045503,0.5243354594561601,0.5344353237865963,0.4083425770604248,0.1371780472965004,0.6412413957900204,0.0040670076874783165
0.6475,0.65125,0.68625,0.6225,0.71375,0.60125,0.902,0.83375,0.826,0.80425,0.79625,0.8227500000000001,0.5276223029267251,0.5186132389294107,0.5227729117709891,0.5197581546857452,0.39095850777872265,0.13529985861089305,0.6421888820502671,0.005319956508108165
0.6475,0.65125,0.68625,0.6225,0.71375,0.60125,0.903,0.835,0.8265,0.8057500000000001,0.79625,0.8234999999999999,0.5269905697805719,0.5191778313547166,0.5209875789666433,0.5050255162819152,0.3761260264340427,0.13529985861089305,0.6421888820502671,0.005319956508108165
0.6475,0.65125,0.68625,0.6225,0.71375,0.60125,0.904,0.83625,0.8270000000000001,0.8072499999999999,0.79625,0.8242499999999999,0.5257515182958464,0.5201483199560534,0.5195928830835902,0.4904592861340429,0.3615708902161705,0.1345590443045685,0.6415577781158922,0.002665496020411765
0.6475,0.65125,0.68625,0.6225,0.71375,0.60125,0.905,0.8375,0.8275,0.80875,0.79625,0.825,0.5242194891201514,0.5211890011291849,0.5181768242439039,0.4747614820665957,0.3494009326382983,0.1345590443045685,0.6415577781158922,0.002665496020411765
0.6475,0.65125,0.68625,0.6225,0.71375,0.60125,0.905,0.8375,0.8275,0.80875,0.79625,0.825,0.5224127933591723,0.5226447340311899,0.5178838465529344,0.4779897936607447,0.3464610609685109,0.1345590443045685,0.6415577781158922,0.002665496020411765
0.6475,0.6515000000000001,0.68625,0.62275,0.71375,0.60125,0.9045000000000001,0.838,0.8277500000000001,0.809,0.797,0.82475,0.5173955504013183,0.5224829859309671,0.5184087649159215,0.4928444642535107,0.35583536761957474,0.1345590443045685,0.6415577781158922,0.002665496020411765
0.6475,0.6517499999999999,0.68625,0.623,0.71375,0.60125,0.904,0.8384999999999999,0.828,0.80925,0.7977500000000001,0.8245,0.5122013000885037,0.5215735343485824,0.5191259498886074,0.5074883519113833,0.3667628119778715,0.13492945145773078,0.6431360353836829,0.0037588553519534696
0.6475,0.652,0.68625,0.6232500000000001,0.71375,0.60125,0.9035,0.8390000000000001,0.82825,0.8095,0.7985,0.8242499999999999,0.5062807092501602,0.5197515793328654,0.5195806756797998,0.5202684714750001,0.3806745051140418,0.13492945145773078,0.6431360353836829,0.0037588553519534696
0.6475,0.65225,0.68625,0.6235,0.71375,0.60125,0.903,0.8395,0.8284999999999999,0.80975,0.79925,0.8240000000000001,0.499984740745262,0.5178258613849299,0.5200537125766778,0.5323496786539365,0.3970157526102124,0.13418863715140622,0.6415577781158922,0.002502815752424027
0.6475,0.6525,0.68625,0.6235,0.71375,0.60125,0.90325,0.83975,0.82875,0.8105,0.80025,0.8240000000000001,0.4944914090395825,0.5159581286049989,0.5215369121372112,0.5423674289072343,0.41839360893021216,0.13417674988124415,0.6415584439695541,0.005167815904824415
0.6475,0.6525,0.68625,0.6232500000000001,0.71375,0.60125,0.904,0.8395,0.82875,0.8109999999999999,0.8005,0.8242499999999999,0.4925107577745903,0.514874721518601,0.5219489120151372,0.5416352343855321,0.426636342355744,0.13417674988124415,0.6415584439695541,0.005167815904824415
0.6475,0.6525,0.68625,0.623,0.71375,0.60125,0.9047499999999999,0.8392499999999999,0.82875,0.8115000000000001,0.8007500000000001,0.8245,0.49089327677236244,0.5141178624835963,0.5223151341288491,0.5395495894263829,0.4374306630242551,0.13417674988124415,0.6415584439695541,0.005167815904824415
0.6475,0.6525,0.68625,0.62275,0.71375,0.60125,0.9055,0.8390000000000001,0.82875,0.812,0.8009999999999999,0.82475,0.49100009155552843,0.5130619220557268,0.5233405560472426,0.5323163968639363,0.46052806704255295,0.13417674988124415,0.6415584439695541,0.005167815904824415
0.648,0.6525,0.68625,0.6225,0.71375,0.601,0.90675,0.8392499999999999,0.8290000000000001,0.8125,0.80125,0.825,0.49183629871517076,0.5121524704733421,0.5242774742881557,0.5255491457177659,0.48209451913148904,0.13417674988124415,0.6415584439695541,0.005167815904824415
0.6485,0.6525,0.68625,0.6225,0.71375,0.60075,0.9072499999999999,0.83975,0.8292499999999999,0.8125,0.80125,0.825,0.49337748344370863,0.5114261299478133,0.5251167332987456,0.519103616459468,0.5018415791931912,0.13605731231912602,0.6402969058712524,0.00438130898390123
0.649,0.6525,0.68625,0.6225,0.71375,0.6004999999999999,0.9077500000000001,0.84025,0.8295,0.8125,0.80125,0.825,0.49506820886867886,0.5104892117069002,0.5262367625965148,0.5120590191020478,0.5236631899370209,0.13530461536983684,0.6418738314317193,0.003287177204580846
0.6495000000000001,0.6525,0.68625,0.6225,0.71375,0.60025,0.90825,0.84075,0.82975,0.8125,0.80125,0.825,0.4969145786919767,0.509469893490402,0.5271309549241615,0.5048812957449801,0.54431994601234,0.13791886160282496,0.6406122894166313,0.002818774551880991
0.65,0.6525,0.68625,0.6225,0.71375,0.6,0.90875,0.84125,0.83,0.8125,0.80125,0.825,0.49830622272408215,0.5092989898373363,0.5276528214362011,0.5014532947989162,0.5546816058399997,0.13791886160282496,0.6406122894166313,0.002818774551880991
0.65,0.6525,0.68625,0.6225,0.71375,0.6,0.90875,0.84125,0.83,0.8125,0.80125,0.825,0.49956968901638843,0.509210486159856,0.5289468062379833,0.4969048147308311,0.5666185933170212,0.13791886160282496,0.6406122894166313,0.002818774551880991
0.65,0.6525,0.68625,0.6225,0.71375,0.6,0.90875,0.8415,0.831,0.8127500000000001,0.80175,0.82525,0.5032288583025605,0.509210486159856,0.5304025391399884,0.492911027345512,0.5851120493523413,0.1356750225229991,0.642505264376139,0.0037572106901229037
0.65,0.6525,0.68625,0.6225,0.71375,0.6,0.90875,0.84175,0.8320000000000001,0.813,0.8022499999999999,0.8255,0.5071718497268594,0.509027375103,0.5313638721884824,0.4901264700450599,0.6017195483923411,0.1356750225229991,0.642505264376139,0.0037572106901229037
0.65,0.6525,0.68625,0.6225,0.71375,0.6,0.90875,0.8420000000000001,0.833,0.81325,0.8027500000000001,0.82575,0.5110660115359966,0.5084902493362224,0.5321543015839106,0.48865098751627667,0.6161526538093631,0.1356750225229991,0.642505264376139,0.0037572106901229037
0.65,0.6525,0.68625,0.6225,0.71375,0.60025,0.90875,0.8422499999999999,0.83375,0.8134999999999999,0.8029999999999999,0.826,0.5150914029358806,0.507449568163091,0.5326944792016358,0.4883625474184044,0.6269580673668098,0.13643009785176016,0.6415577781158922,0.003911448360713735
0.65,0.6525,0.68625,0.6225,0.71375,0.6004999999999999,0.90875,0.8425,0.8345,0.81375,0.80325,0.82625,0.5188726462599567,0.5061891537217322,0.532166508987701,0.48895052154414903,0.6352340829293632,0.13530936750158323,0.6418738314317193,0.003128398686881841
0.65,0.6525,0.68625,0.6225,0.71375,0.60075,0.90875,0.8425,0.8342499999999999,0.81375,0.8029999999999999,0.82625,0.5199285866878262,0.5049684133426924,0.53029877620777,0.4876525404096808,0.633913913240852,0.13493182983720267,0.6437661366207788,0.0037554386040424023
0.65,0.6525,0.68625,0.6225,0.71375,0.601,0.90875,0.8425,0.8340000000000001,0.81375,0.8027500000000001,0.82625,0.520151371807001,0.5045442060609759,0.528522598956267,0.4847903259028722,0.6325271820544693,0.1353069891221113,0.6412423945705132,0.004383935503905725
0.65,0.6525,0.68625,0.6225,0.71375,0.60125,0.90875,0.8420000000000001,0.833,0.8134999999999999,0.8025,0.82625,0.5224585711233863,0.5053102206488235,0.5257057405316324,0.4775016636904253,0.6338251618008517,0.13567977465474546,0.642189547903929,0.0037593117085695156
0.65,0.6525,0.68625,0.6225,0.71375,0.60125,0.90875,0.8415,0.8322499999999999,0.81325,0.8025,0.82625,0.5253883480330821,0.5065004425183874,0.5229071932126835,0.47260927422148924,0.6332039072731929,0.13530223699036495,0.6412427274973443,0.0025073575873170873
0.6497499999999999,0.6525,0.68625,0.62225,0.7134999999999999,0.601,0.90875,0.8405,0.8315,0.813,0.8025,0.82625,0.5297036652729881,0.5077028717917417,0.5203711050752281,0.46925893026489346,0.6286554258170218,0.1364277240994857,0.6421892149770981,0.00469729149019539
0.6495000000000001,0.6525,0.68625,0.622,0.71325,0.60075,0.90875,0.8395,0.83075,0.8127500000000001,0.8025,0.82625,0.5341776787621693,0.5086947233497116,0.5190404980620746,0.4665187482940424,0.624617263058724,0.1364277240994857,0.6421892149770981,0.00469729149019539
0.64925,0.6525,0.68625,0.62175,0.713,0.6004999999999999,0.90875,0.8384999999999999,0.83,0.8125,0.8025,0.82625,0.5394360179448836,0.5093600268562883,0.518298898281808,0.4647548255697871,0.6198025300587238,0.1364277240994857,0.6421892149770981,0.00469729149019539
0.64925,0.6525,0.68625,0.6214999999999999,0.7127500000000001,0.60025,0.909,0.8384999999999999,0.83,0.8125,0.8027500000000001,0.826,0.5417371135593737,0.509393597216712,0.5187261574144719,0.471544264228936,0.5898491242350536,0.1364277240994857,0.6421892149770981,0.00469729149019539
0.649,0.6525,0.68625,0.62125,0.7127500000000001,0.6,0.90925,0.8384999999999999,0.8305,0.81325,0.8029999999999999,0.82575,0.5422742393261513,0.5093203527939696,0.5196203497421186,0.47719103573255295,0.5589527398269679,0.13418388501965983,0.6415584439695541,0.003441248927311303
0.649,0.6525,0.68625,0.62125,0.713,0.6,0.9095,0.8390000000000001,0.831,0.8140000000000001,0.80325,0.8255,0.5412732322153386,0.5093203527939696,0.5213904232917265,0.4827046813124333,0.5296871530652658,0.13418388501965983,0.6415584439695541,0.003441248927311303
0.649,0.6525,0.68625,0.62125,0.71325,0.6,0.90975,0.8395,0.8315,0.81475,0.8035,0.82525,0.5400463881344035,0.5091433454390087,0.5233191930906095,0.48990459275723397,0.49829154562441436,0.13418388501965983,0.6415584439695541,0.003441248927311303
0.649,0.6525,0.68625,0.62125,0.7134999999999999,0.6,0.91,0.84,0.8320000000000001,0.8155,0.80375,0.825,0.5378337961973937,0.5084933011871701,0.5249580370494705,0.4976037275167553,0.4646771688405851,0.13455191379335021,0.6402962400175904,0.003915044885473553
0.64875,0.6525,0.68625,0.62125,0.71375,0.6,0.91,0.84,0.8325,0.81625,0.80375,0.825,0.5359416486098819,0.5074800866725669,0.5267860957670827,0.5005325050830319,0.4523075214770212,0.13455191379335021,0.6418728287344401,0.004222204497190758
0.64875,0.6525,0.68625,0.62125,0.71375,0.6,0.91,0.84,0.8325,0.81625,0.80375,0.825,0.5340861232337413,0.5064302499465926,0.5281685842463454,0.5028067451170745,0.4416241394144676,0.13455191379335021,0.6418728287344401,0.004222204497190758
0.64875,0.6525,0.68625,0.62125,0.71375,0.6,0.91,0.84,0.8325,0.81625,0.80375,0.825,0.5316080202642903,0.5051606799523911,0.5286263618884853,0.5041269137428325,0.4328378065421269,0.1334359355749196,0.6412430604241752,0.0036007100043646176
0.64875,0.65225,0.68625,0.62125,0.71375,0.6,0.91025,0.83975,0.8322499999999999,0.8165,0.8035,0.825,0.5278572954496903,0.5026367992187262,0.5286721396526993,0.5067561573029257,0.4303527828791479,0.13792361373457135,0.6406116235629692,0.0037556114663969647
0.64875,0.652,0.68625,0.62125,0.71375,0.6,0.9105,0.8395,0.8320000000000001,0.81675,0.80325,0.825,0.5247230445265053,0.49926450392162847,0.5299417096469008,0.5065675617508778,0.43451297782638176,0.13792361373457135,0.6406116235629692,0.0037556114663969647
0.64875,0.652,0.68625,0.62125,0.71375,0.6,0.91025,0.8395,0.8320000000000001,0.8172499999999999,0.8035,0.82525,0.5213568529313028,0.49652394177068393,0.5292153691213721,0.496461060404601,0.4423896139910625,0.13792361373457135,0.6406116235629692,0.0037556114663969647
0.64875,0.652,0.68625,0.62125,0.71375,0.6,0.91,0.8395,0.8320000000000001,0.8177500000000001,0.80375,0.8255,0.5185491500595111,0.4944334238715781,0.5287484359263893,0.4858331479920476,0.4529842453076587,0.13455191379335021,0.6428203189114731,0.005010169388601577
0.64875,0.652,0.68625,0.62125,0.71375,0.6,0.90975,0.8395,0.8320000000000001,0.81825,0.804,0.82575,0.5164098025452437,0.49313028351695304,0.5280861842707603,0.47404038143151583,0.46507654676361654,0.13455191379335021,0.6428203189114731,0.005010169388601577
0.64875,0.65225,0.68625,0.62125,0.7134999999999999,0.60025,0.909,0.8395,0.8325,0.8184999999999999,0.80475,0.82575,0.515118869594409,0.4936277352214118,0.5270149845881528,0.4587197682078983,0.4749722651749999,0.13455191379335021,0.6428203189114731,0.005010169388601577
0.64875,0.6525,0.68625,0.62125,0.71325,0.6004999999999999,0.90825,0.8395,0.833,0.81875,0.8055,0.82575,0.5138126773888363,0.4953703421124912,0.524542985320597,0.4456955829217011,0.48109607237191465,0.13680526176386623,0.6431363683105139,0.0037572106901229037
0.64875,0.6525,0.68625,0.62125,0.713,0.60075,0.9079999999999999,0.8392499999999999,0.83325,0.81875,0.8057500000000001,0.8255,0.5123447370830408,0.4970061342204047,0.5229621265297403,0.44172398374340355,0.4862879963892553,0.13680526176386623,0.6431363683105139,0.0037572106901229037
0.64875,0.6525,0.68625,0.62125,0.7127500000000001,0.601,0.9077500000000001,0.8390000000000001,0.8334999999999999,0.81875,0.8059999999999999,0.82525,0.5105197302163762,0.4983794671468246,0.520502334665975,0.4388728628195735,0.49182382946042547,0.13680526176386623,0.6431363683105139,0.0037572106901229037
0.64875,0.6525,0.68625,0.62125,0.7125,0.60125,0.9075,0.83875,0.83375,0.81875,0.80625,0.825,0.5083437604907376,0.4991149632251961,0.517505417035432,0.44192367240127545,0.4959729309114361,0.13680526176386623,0.6431363683105139,0.0037572106901229037
0.64875,0.6525,0.68625,0.6214999999999999,0.7127500000000001,0.60125,0.9072499999999999,0.8390000000000001,0.83375,0.8190000000000001,0.80625,0.82525,0.5048890652180548,0.5001190221869564,0.5180089724417859,0.44702684619319094,0.5046927000302658,0.1360525601873796,0.6428216506187969,0.002975279188778821
0.64875,0.6525,0.68625,0.62175,0.713,0.60125,0.907,0.8392499999999999,0.83375,0.8192499999999999,0.80625,0.8255,0.5012787255470443,0.5018707846308786,0.5178868984038819,0.45186376705319126,0.5143443530227126,0.1360525601873796,0.6428216506187969,0.002975279188778821
0.64875,0.6525,0.68625,0.622,0.71325,0.60125,0.90675,0.8395,0.83375,0.8195,0.80625,0.82575,0.49833979308450577,0.5036194952238533,0.518329416791284,0.45764366467574424,0.5224539605028191,0.1375460760701908,0.6434517518558928,0.004069094876936572
0.64875,0.6525,0.68625,0.62225,0.7134999999999999,0.60125,0.9065000000000001,0.83975,0.83375,0.81975,0.80625,0.826,0.495547349467452,0.5050782799768059,0.5187414166692099,0.4623918347897871,0.5289549592376066,0.13530936750158323,0.6421888820502671,0.0026628932072444733
0.64875,0.6525,0.68625,0.6225,0.71375,0.60125,0.90625,0.84,0.83375,0.82,0.80625,0.82625,0.49313028351695304,0.5066164128543962,0.5190588091677603,0.46087197644340394,0.5366651877536172,0.1371804210487749,0.6440815240829437,0.00391324810477097
0.64875,0.6525,0.68625,0.6225,0.71375,0.60125,0.90625,0.84,0.83375,0.82,0.80625,0.82625,0.49281289101840264,0.5079714346751305,0.5165684987945188,0.4568670951280848,0.5400599074302131,0.1371804210487749,0.6440815240829437,0.00391324810477097
0.64875,0.6525,0.68625,0.6225,0.71375,0.6015,0.90675,0.8405,0.8340000000000001,0.82025,0.8072499999999999,0.8265,0.49275185399945065,0.5095370342112491,0.5177434614093448,0.47001331229957427,0.5314732644303195,0.1371804210487749,0.6440815240829437,0.00391324810477097
0.64875,0.6525,0.68625,0.6225,0.71375,0.60175,0.9072499999999999,0.841,0.8342499999999999,0.8205,0.80825,0.82675,0.4913357951597644,0.5108005005035554,0.5178594317453535,0.4835367203148934,0.5260816512345747,0.1371804210487749,0.6440815240829437,0.00391324810477097
0.64875,0.6525,0.68625,0.6225,0.71375,0.602,0.9077500000000001,0.8415,0.8345,0.82075,0.80925,0.8270000000000001,0.48878749961851864,0.5116489150669882,0.5181554612872707,0.4975482577799997,0.5227091194179789,0.1371804210487749,0.6440815240829437,0.00391324810477097
0.649,0.6525,0.68625,0.6225,0.71375,0.6022500000000001,0.90825,0.8425,0.835,0.821,0.80975,0.8272499999999999,0.48552507095553454,0.5120456556901761,0.5198187200537125,0.5116152652421277,0.5200576885401067,0.1386715631793116,0.642505264376139,0.0034422218954212776
0.64925,0.6525,0.68625,0.6225,0.71375,0.6025,0.90875,0.8434999999999999,0.8355,0.82125,0.81025,0.8275,0.48174382763145845,0.5122501297036652,0.5220160527359844,0.526547592650851,0.5164743737886174,0.13605493856685155,0.6431357024568519,0.003909032238889375
0.6495000000000001,0.6525,0.68625,0.6225,0.71375,0.6025,0.90875,0.8440000000000001,0.83575,0.82125,0.80975,0.8275,0.47777947325052644,0.5117160557878353,0.5216589861751152,0.5226092745685107,0.522908809290426,0.13755320658140907,0.6437688039522127,0.0031403953342885836
0.6497499999999999,0.6525,0.68625,0.6225,0.71375,0.6025,0.90875,0.8445,0.836,0.82125,0.80925,0.8275,0.48335825678273875,0.5159581286049989,0.4892941068758202,0.5700355015476604,0.5574994463619155,0.13755320658140907,0.6437688039522127,0.0031403953342885836
0.65,0.6525,0.68625,0.6225,0.71375,0.6025,0.90875,0.845,0.83625,0.82125,0.80875,0.8275,0.4902523880733665,0.5206915494247261,0.45733207190160835,0.6173396963378739,0.5899600634482987,0.6775923064921193,0.7832600229757114,0.35912946956818054
0.6505,0.6535,0.6872499999999999,0.6232500000000001,0.71475,0.60475,0.91,0.84125,0.8322499999999999,0.805,0.8007500000000001,0.794,0.4957670827356792,0.5201605273598437,0.46029236732078005,0.6168293790280867,0.5857776802940432,0.6775923064921193,0.7832600229757114,0.35912946956818054
0.6509999999999999,0.6545000000000001,0.68825,0.624,0.71575,0.607,0.91125,0.8375,0.82825,0.78875,0.7927500000000001,0.7605,0.501882992034669,0.5200476088747825,0.4617542039246803,0.6172620391748951,0.581251387565426,0.6775923064921193,0.7832600229757114,0.35912946956818054
0.6515000000000001,0.6555,0.6892499999999999,0.62475,0.71675,0.60925,0.9125,0.83375,0.8242499999999999,0.7725,0.78475,0.727,0.5082888271736808,0.519266335032197,0.46238288521988585,0.6184823629728736,0.5787663640759578,1.0,0.6764425290698195,0.5064953242101172
0.652,0.6565000000000001,0.69025,0.6255,0.7177500000000001,0.6114999999999999,0.91375,0.83,0.82025,0.75625,0.7767499999999999,0.6934999999999999,0.506488235114597,0.5125034333323161,0.49702444532609025,0.567339694949788,0.5452851123700002,0.9270403593459303,0.48206191018046146,0.5932840262794596
0.6525,0.6575,0.69125,0.62625,0.71875,0.61375,0.915,0.82625,0.81625,0.74,0.76875,0.66,0.5046601763969848,0.5052491836298715,0.531861323892941,0.5170845352538298,0.5110494786293617,0.9655298871907316,0.513015602118502,0.629942269179202
0.652,0.65675,0.69075,0.62575,0.7177500000000001,0.613,0.9122499999999999,0.8242499999999999,0.8142499999999999,0.7384999999999999,0.76725,0.65575,0.5050263985106968,0.5037110507522813,0.5313882869960631,0.5161415574502127,0.5118704238970213,0.9655298871907316,0.513015602118502,0.629942269179202
0.6515000000000001,0.6559999999999999,0.69025,0.62525,0.71675,0.61225,0.9095,0.8222499999999999,0.8122499999999999,0.737,0.76575,0.6515000000000001,0.5049409466841639,0.5023010956144902,0.5317423017059847,0.5166185933170213,0.5110827602458511,0.9655298871907316,0.513015602118502,0.629942269179202
0.6509999999999999,0.6552500000000001,0.68975,0.62475,0.71575,0.6114999999999999,0.90675,0.82025,0.81025,0.7354999999999999,0.76425,0.64725,0.5046418652912992,0.5017639698477127,0.5323587755973999,0.5160306191912767,0.5037497226604255,0.9655298871907316,0.513015602118502,0.629942269179202
0.65075,0.65425,0.68875,0.6245,0.7142499999999999,0.6095,0.9035,0.8175,0.8065000000000001,0.7332500000000001,0.7609999999999999,0.6415000000000001,0.5045381023590808,0.5024872585222938,0.5325296792504655,0.5158974930723406,0.49587308614872333,0.9655298871907316,0.513015602118502,0.629942269179202
0.6505,0.65325,0.6877500000000001,0.62425,0.7127500000000001,0.6075,0.9002500000000001,0.81475,0.8027500000000001,0.731,0.75775,0.63575,0.5044129764702292,0.5037079989013337,0.5323160496841335,0.514177945721064,0.4880852003829785,0.9655298871907316,0.513015602118502,0.629942269179202
0.65075,0.653,0.6872499999999999,0.6245,0.7122499999999999,0.60625,0.8997499999999999,0.8140000000000001,0.8009999999999999,0.7302500000000001,0.7559999999999999,0.63425,0.5044251838740196,0.5047486800744652,0.5319437238685263,0.512425116753298,0.4800199684493614,0.81093989961397,0.4849073692194668,0.6615437636941743
0.6509999999999999,0.65275,0.68675,0.62475,0.71175,0.605,0.89925,0.81325,0.79925,0.7295,0.75425,0.63275,0.5046357615894039,0.5049409466841639,0.5314462721640675,0.509185711229149,0.4734413130721274,0.81093989961397,0.4849073692194668,0.6615437636941743
0.65125,0.6525,0.68625,0.625,0.71125,0.60375,0.89875,0.8125,0.7975,0.72875,0.7525,0.63125,0.5047456282235175,0.5049317911313211,0.5312601092562639,0.507776791662234,0.4723097401936169,0.81093989961397,0.4849073692194668,0.6615437636941743
0.65125,0.6525,0.68625,0.625,0.71125,0.60375,0.89875,0.8125,0.7975,0.72875,0.7525,0.63125,0.5048432874538408,0.5049653614917448,0.5311258278145695,0.5061903704298936,0.47097847796319153,0.81093989961397,0.4849073692194668,0.6615437636941743
0.6509999999999999,0.65275,0.68625,0.62475,0.71075,0.6035,0.89725,0.8122499999999999,0.79675,0.7297499999999999,0.7517499999999999,0.63125,0.5054475539414655,0.5046510208441419,0.530710776085696,0.504404259943238,0.47075660109829803,0.81093989961397,0.4849073692194668,0.6615437636941743
0.65075,0.653,0.68625,0.6245,0.71025,0.6032500000000001,0.89575,0.812,0.7959999999999999,0.73075,0.7509999999999999,0.63125,0.5059144871364483,0.5045167394024476,0.5304544206060976,0.5026514310730718,0.47081207040127676,0.7723980798111689,0.49025158512926925,0.648573913084656
0.6505,0.65325,0.68625,0.62425,0.70975,0.603,0.89425,0.81175,0.79525,0.73175,0.7502500000000001,0.63125,0.506213568529313,0.5045564134647664,0.5302652058473464,0.5011093853655318,0.4713001998510639,0.7723980798111689,0.49025158512926925,0.648573913084656
0.6502500000000001,0.6535,0.68625,0.624,0.7092499999999999,0.60275,0.89275,0.8115000000000001,0.7945,0.73275,0.7495,0.63125,0.5064455092013306,0.504498428296762,0.5302346873378704,0.5000554692487567,0.47177723537085103,0.7723980798111689,0.49025158512926925,0.648573913084656
0.65,0.65375,0.68625,0.62375,0.70875,0.6025,0.89125,0.81125,0.79375,0.73375,0.74875,0.63125,0.5068422498245185,0.5042756431775872,0.529886776329844,0.4987685822177992,0.4720656754687233,0.5815980560255233,0.5482353714672634,0.5964644901197514
0.6502500000000001,0.654,0.6865000000000001,0.62425,0.7090000000000001,0.6025,0.8905,0.8109999999999999,0.795,0.73375,0.7482500000000001,0.63125,0.5069368572038941,0.5042481765190588,0.5296639912106693,0.49809185707498665,0.4722653648206382,0.5815980560255233,0.5482353714672634,0.5964644901197514
0.6505,0.65425,0.68675,0.62475,0.7092499999999999,0.6025,0.8897499999999999,0.8107500000000001,0.79625,0.73375,0.74775,0.63125,0.5071016571550645,0.504193243202002,0.5293252357554857,0.49737075655919544,0.4733081869531913,0.5815980560255233,0.5482353714672634,0.5964644901197514
0.65075,0.6545000000000001,0.687,0.62525,0.7095,0.6025,0.889,0.8105,0.7975,0.73375,0.74725,0.63125,0.5074312570574053,0.5037842951750237,0.5287057100131229,0.49643887279402255,0.4753272683323402,0.5625194778983235,0.5548514540407004,0.5881845502717812
0.6509999999999999,0.6547499999999999,0.6872499999999999,0.62575,0.70975,0.6025,0.88825,0.81025,0.79875,0.73375,0.74675,0.63125,0.5078554643391217,0.5031861323892941,0.5280312509537034,0.49637230965864354,0.4801309072288296,0.5625194778983235,0.5548514540407004,0.5881845502717812
0.65125,0.655,0.6875,0.62625,0.71,0.60275,0.888,0.8107500000000001,0.80025,0.73375,0.746,0.6317499999999999,0.508127079073458,0.5027100436414685,0.5276223029267251,0.4967162191028723,0.4853228308991488,0.5625194778983235,0.5548514540407004,0.5881845502717812
0.65125,0.655,0.6875,0.62625,0.71,0.603,0.8885,0.8115000000000001,0.8005,0.73375,0.74575,0.63225,0.50803552354503,0.5027161473433638,0.5280861842707603,0.4983692033946808,0.490459285288178,0.5625194778983235,0.5548514540407004,0.5881845502717812
0.65125,0.655,0.6875,0.62625,0.71,0.6032500000000001,0.889,0.8122499999999999,0.8007500000000001,0.73375,0.7454999999999999,0.63275,0.5079836420789209,0.5027314065981018,0.5285409100619526,0.5000887507459574,0.4946416683556781,0.5625194778983235,0.5548514540407004,0.5881845502717812
0.65125,0.655,0.6875,0.62625,0.71,0.6035,0.8895000000000001,0.813,0.8009999999999999,0.73375,0.7452500000000001,0.63325,0.5078249458296457,0.5029694509720145,0.5292489394817957,0.5023075215637766,0.49749278901924204,0.47464885552264136,0.5749987601413135,0.5455559784800433
0.65125,0.655,0.6875,0.62625,0.71,0.60375,0.89,0.81375,0.80125,0.73375,0.745,0.63375,0.507745597705008,0.5032715842158269,0.5296273689992981,0.5036055024813564,0.4976591968414229,0.46453612945125233,0.5803602999966856,0.5452370780572042
0.6515000000000001,0.655,0.6875,0.62625,0.71,0.6035,0.8897499999999999,0.81375,0.8009999999999999,0.73375,0.7445,0.633,0.5075106051820429,0.5035370952482681,0.5303781243324076,0.5049811403884042,0.4969491901797208,0.46453612945125233,0.5803602999966856,0.5452370780572042
0.6517499999999999,0.655,0.6875,0.62625,0.71,0.6032500000000001,0.8895000000000001,0.81375,0.8007500000000001,0.73375,0.7440000000000001,0.63225,0.507669301431318,0.5035279396954253,0.5297555467390973,0.505147548210585,0.4959729309981915,0.46453612945125233,0.5803602999966856,0.5452370780572042
0.652,0.655,0.6875,0.62625,0.71,0.603,0.88925,0.81375,0.8005,0.73375,0.7434999999999999,0.6315,0.5076143681142613,0.5037141026032289,0.5294595171971801,0.5052030175135638,0.4962502773504189,0.464531377319506,0.5800462481586307,0.5447769402006224
0.65225,0.655,0.6875,0.62625,0.71,0.60275,0.889,0.81375,0.80025,0.73375,0.743,0.63075,0.5075289162877286,0.5039887691885129,0.5294259468367565,0.5051364544540958,0.4973152873429721,0.464531377319506,0.5800462481586307,0.5447769402006224
0.6525,0.655,0.6875,0.62625,0.71,0.6025,0.88875,0.81375,0.8,0.73375,0.7425,0.63,0.5076296273689993,0.5042909024323252,0.5291940061647389,0.5045262925117288,0.4985577990009508,0.4853787988301724,0.5885922919041038,0.5784619298583813
0.65275,0.655,0.6872499999999999,0.62625,0.71,0.6025,0.8885,0.8134999999999999,0.7985,0.7334999999999999,0.7415,0.62925,0.5076601458784753,0.5044495986816004,0.5289315469832453,0.5036720657577128,0.5007543821322806,0.4853787988301724,0.5885922919041038,0.5784619298583813
0.653,0.655,0.687,0.62625,0.71,0.6025,0.88825,0.81325,0.797,0.7332500000000001,0.7404999999999999,0.6285000000000001,0.507464827417829,0.5045442060609759,0.5294503616443373,0.5028400267010307,0.5027845574414296,0.4853787988301724,0.5885922919041038,0.5784619298583813
0.65325,0.655,0.68675,0.62625,0.71,0.6025,0.888,0.813,0.7955,0.733,0.7395,0.62775,0.507373271889401,0.5043946653645436,0.5295297097689748,0.5020745507688831,0.5040159752453192,0.4853787988301724,0.5885922919041038,0.5784619298583813
0.6535,0.655,0.6865000000000001,0.62625,0.71,0.6025,0.88775,0.8127500000000001,0.794,0.73275,0.7384999999999999,0.627,0.5073671681875057,0.5041261024811549,0.5296670430616168,0.5021300199851064,0.5051919237570746,0.4853787988301724,0.5885922919041038,0.5784619298583813
0.65375,0.655,0.68625,0.62625,0.71,0.6025,0.8875,0.8125,0.7925,0.7325,0.7375,0.62625,0.507174901577807,0.5040192876979889,0.5298165837580493,0.5028844020631649,0.5064455292582979,0.4917090084921428,0.604380524338138,0.5901534752093173
0.6535,0.655,0.68625,0.626,0.71,0.6022500000000001,0.88625,0.81175,0.7925,0.732,0.7365,0.62575,0.5071077608569597,0.5042512283700064,0.5296731467635121,0.5038717551096277,0.5079321057279256,0.4917090084921428,0.604380524338138,0.5901534752093173
0.65325,0.655,0.68625,0.62575,0.71,0.602,0.885,0.8109999999999999,0.7925,0.7315,0.7354999999999999,0.62525,0.507098605304117,0.5044862208929716,0.5295205542161321,0.5045928556471078,0.5098957178908511,0.4917090084921428,0.604380524338138,0.5901534752093173
0.653,0.655,0.68625,0.6255,0.71,0.60175,0.88375,0.81025,0.7925,0.731,0.7345,0.62475,0.5071962645344401,0.5045442060609759,0.5294015320291757,0.5052917684330319,0.5122254272278725,0.47544156847518537,0.6135630027640683,0.6426699445689007
0.65275,0.655,0.68625,0.62525,0.71,0.6015,0.8825,0.8095,0.7925,0.7304999999999999,0.7334999999999999,0.62425,0.5070589312417981,0.5047761467329935,0.5290078432569353,0.5046705126040426,0.5145884180078724,0.47544156847518537,0.6135630027640683,0.6426699445689007
0.6525,0.655,0.68625,0.625,0.71,0.60125,0.88125,0.80875,0.7925,0.73,0.7325,0.62375,0.5069215979491561,0.5048188726462599,0.5288003173924986,0.5038939427961171,0.5166962501329786,0.47544156847518537,0.6135630027640683,0.6426699445689007
0.6525,0.655,0.68625,0.625,0.71,0.60125,0.88125,0.80875,0.7925,0.73,0.7325,0.62375,0.506961272011475,0.5047334208197272,0.5284218878749962,0.5024406478779122,0.5195362767797872,0.47877761586031514,0.6255616191671601,0.647505298752224
0.65225,0.6547499999999999,0.68625,0.625,0.71,0.60125,0.882,0.80875,0.792,0.72875,0.733,0.6235,0.5065614795373394,0.5043427838984345,0.5289407025360882,0.5008986021486835,0.5257821163391487,0.47877761586031514,0.6255616191671601,0.647505298752224
0.652,0.6545000000000001,0.68625,0.625,0.71,0.60125,0.88275,0.80875,0.7915000000000001,0.7275,0.7334999999999999,0.6232500000000001,0.5062105166783655,0.5043671987060152,0.5290017395550402,0.4993232749330984,0.5315731078917018,0.47877761586031514,0.6255616191671601,0.647505298752224
0.6517499999999999,0.65425,0.68625,0.625,0.71,0.60125,0.8835,0.80875,0.7909999999999999,0.72625,0.7340000000000001,0.623,0.5060213019196143,0.5042634357737968,0.5290414136173589,0.4981140448916091,0.5366208113395741,0.47877761586031514,0.6255616191671601,0.647505298752224
0.6515000000000001,0.654,0.68625,0.625,0.71,0.60125,0.88425,0.80875,0.7905,0.725,0.7345,0.62275,0.5067720572527238,0.5039826654866176,0.5262001403851436,0.4941979143222473,0.5502107825878719,0.4817575171147192,0.6302980556046872,0.648921819810591
0.65125,0.65375,0.68625,0.625,0.71,0.60125,0.885,0.80875,0.79,0.72375,0.735,0.6225,0.5074465163121433,0.5036713766899624,0.5234809411908322,0.4908919457169414,0.5627579313565952,0.4483372228552253,0.6426103909190032,0.6356098252121466
0.65125,0.65375,0.68625,0.625,0.71,0.60125,0.885,0.80875,0.79,0.72375,0.735,0.6225,0.5087405011139255,0.5035248878444777,0.5193487350077822,0.4856001774140425,0.5817062333165949,0.4483372228552253,0.6426103909190032,0.6356098252121466
0.65125,0.65375,0.68625,0.625,0.71,0.60125,0.885,0.80875,0.79,0.72375,0.735,0.6225,0.5098239082003235,0.5027954954680014,0.5162663655507065,0.4789771463168083,0.6139782553280847,0.4483372228552253,0.6426103909190032,0.6356098252121466
0.65125,0.6535,0.6859999999999999,0.6245,0.71025,0.602,0.88725,0.80975,0.79025,0.7240000000000001,0.73675,0.625,0.5084231086153752,0.5030304879909665,0.5168248542741173,0.47865542451569126,0.605591301940372,0.4483372228552253,0.6426103909190032,0.6356098252121466
0.6495000000000001,0.65075,0.68475,0.6235,0.7095,0.6004999999999999,0.8855,0.81175,0.7929999999999999,0.7240000000000001,0.74125,0.63125,0.5058748130741295,0.5029450361644338,0.5201422162541581,0.4820723316618881,0.5880962941828455,0.4483372228552253,0.6426103909190032,0.6356098252121466
0.64775,0.648,0.6835,0.6225,0.70875,0.599,0.88375,0.81375,0.7957500000000001,0.7240000000000001,0.74575,0.6375,0.5035706656086917,0.5029053621021149,0.5234839930417798,0.4853450187157712,0.5703128462298468,0.4400622761544087,0.6628020154559987,0.6232036925698498
0.6459999999999999,0.6452500000000001,0.6822499999999999,0.6214999999999999,0.708,0.5975,0.882,0.81575,0.7985,0.7240000000000001,0.7502500000000001,0.64375,0.5009735404522843,0.5029633472701194,0.5276314584795678,0.49114710429592406,0.5424339920426133,0.4400622761544087,0.6628020154559987,0.6232036925698498
0.64425,0.6425,0.6809999999999999,0.6204999999999999,0.7072499999999999,0.596,0.8802500000000001,0.8177500000000001,0.80125,0.7240000000000001,0.7547499999999999,0.65,0.4983642078920866,0.5033875545518357,0.5312875759147924,0.49843576659512634,0.5010539161276196,0.47894795687879566,0.4791681023320255,0.693782599734854
0.6425,0.64,0.68,0.62,0.70625,0.59375,0.87625,0.81875,0.80375,0.72375,0.7575,0.65375,0.4982634968108158,0.5027954954680014,0.5312417981505784,0.49967827824226063,0.500166407800492,0.47894795687879566,0.4791681023320255,0.693782599734854
0.6425,0.64,0.68,0.62,0.70625,0.59375,0.87625,0.81875,0.80375,0.72375,0.7575,0.65375,0.49844050416577657,0.5027832880642109,0.5313364055299539,0.5002662524981383,0.4997004659504388,0.49200493164849735,0.48643661574095126,0.7083152919774914
0.6425,0.63975,0.67975,0.61975,0.70575,0.5935,0.8752500000000001,0.81825,0.8027500000000001,0.72125,0.7567499999999999,0.6535,0.49829401532029177,0.5027497177037874,0.5312875759147924,0.5008209451809043,0.49946749501456783,0.49200493164849735,0.48643661574095126,0.7083152919774914
0.6425,0.6395000000000001,0.6795,0.6195,0.70525,0.59325,0.87425,0.8177500000000001,0.80175,0.71875,0.7559999999999999,0.65325,0.49833674123355814,0.5027558214056825,0.5310525833918271,0.5012203239172672,0.49903483469424864,0.49200493164849735,0.48643661574095126,0.7083152919774914
0.6425,0.63925,0.67925,0.61925,0.70475,0.593,0.8732500000000001,0.8172499999999999,0.8007500000000001,0.71625,0.7552500000000001,0.653,0.49847407452620013,0.5027863399151585,0.5308786278878139,0.5014643887072274,0.4986132682280186,0.49200493164849735,0.48643661574095126,0.7083152919774914
0.6425,0.639,0.679,0.619,0.7042499999999999,0.59275,0.87225,0.81675,0.79975,0.71375,0.7545000000000001,0.65275,0.4985747856074709,0.5028962065492721,0.5308175908688619,0.5013756378745147,0.498380297302992,0.5013887260565265,0.5287091697457371,0.6855378516989185
0.6425,0.63875,0.67875,0.61875,0.70375,0.5925,0.87125,0.81625,0.79875,0.71125,0.75375,0.6525,0.4985656300546281,0.5029114658040101,0.5307199316385388,0.5008875083054388,0.49842467271934837,0.46778343181713783,0.5757051682080695,0.6437942462619092
0.6425,0.63875,0.67875,0.61875,0.70375,0.5925,0.87125,0.81625,0.79875,0.71125,0.75375,0.6525,0.4986754966887417,0.5028839991454818,0.5307504501480148,0.5005435988395213,0.498491235843883,0.4550612116445071,0.5845312778373343,0.636292524831907
0.64225,0.63875,0.679,0.61875,0.7040000000000001,0.59325,0.87225,0.8165,0.7985,0.71125,0.75425,0.652,0.4986419263283181,0.5028717917416914,0.5307779168065432,0.500343909476762,0.49870201908242023,0.44983747131027707,0.5936757712702428,0.6226883069169644
0.642,0.63875,0.67925,0.61875,0.7042499999999999,0.594,0.8732500000000001,0.81675,0.79825,0.71125,0.7547499999999999,0.6515000000000001,0.49856257820368055,0.5028595843379009,0.5309030426953948,0.5004104726012966,0.498790769915133,0.44983747131027707,0.5936757712702428,0.6226883069169644
0.6417499999999999,0.63875,0.67975,0.619,0.70475,0.5954999999999999,0.8740000000000001,0.8170000000000001,0.7977500000000001,0.7105,0.7552500000000001,0.65125,0.4984893337809381,0.5028382213812678,0.5309976500747704,0.5008431329324601,0.4988573330179787,0.44983747131027707,0.5936757712702428,0.6226883069169644
0.6415000000000001,0.63875,0.68025,0.61925,0.70525,0.597,0.8747499999999999,0.8172499999999999,0.7972499999999999,0.70975,0.75575,0.6509999999999999,0.49848628192999056,0.5029236732078005,0.5318491164891507,0.5004659419042753,0.4999001553240426,0.44983747131027707,0.5936757712702428,0.6226883069169644
0.6409999999999999,0.63875,0.6809999999999999,0.61975,0.7065,0.59925,0.875,0.818,0.79875,0.71125,0.757,0.6535,0.49845576342051456,0.5033051545762505,0.532654805139317,0.4996117151719482,0.5015975150322075,0.44983747131027707,0.5936757712702428,0.6226883069169644
0.64075,0.63875,0.6815000000000001,0.62025,0.7075,0.60075,0.87425,0.8184999999999999,0.8005,0.7127500000000001,0.75775,0.6565000000000001,0.49845576342051456,0.5038819544053469,0.5331522568437758,0.49723763034265955,0.5046261371443085,0.4390338445110914,0.6100737807375382,0.6042666127372999
0.6405,0.63875,0.682,0.62075,0.7084999999999999,0.6022500000000001,0.8734999999999999,0.8190000000000001,0.8022499999999999,0.7142499999999999,0.7585,0.6595,0.49830927457502977,0.5042512283700064,0.5332102420117801,0.49327712453045214,0.5086310184596277,0.391137150284112,0.7333712506965123,0.44582068813518266
0.6402500000000001,0.63875,0.6822499999999999,0.621,0.7092499999999999,0.603,0.873,0.8195,0.80425,0.7165,0.75925,0.6622499999999999,0.4990142521439253,0.5042054506057924,0.5331064790795618,0.4884512979474734,0.5135012204155852,0.391137150284112,0.7333712506965123,0.44582068813518266
0.64,0.63875,0.6825,0.62125,0.71,0.60375,0.8725,0.82,0.80625,0.71875,0.76,0.665,0.49968871120334485,0.5040650654622029,0.5322641682180242,0.48445751043202123,0.5172620369192553,0.391137150284112,0.7333712506965123,0.44582068813518266
0.64,0.63875,0.6825,0.62125,0.71,0.60375,0.8725,0.82,0.80625,0.71875,0.76,0.665,0.4997466963713492,0.503811761833552,0.5313852351451155,0.4802085642182977,0.5215664522624468,0.37373986896526523,0.755099477479564,0.37047066836452
0.642,0.64075,0.68375,0.622,0.7115,0.60525,0.87925,0.823,0.8142499999999999,0.73125,0.76775,0.6890000000000001,0.4977233191930906,0.5060182500686666,0.535087130344554,0.4770246281706382,0.5233303751602129,0.37373986896526523,0.755099477479564,0.37047066836452
0.644,0.64275,0.685,0.62275,0.713,0.60675,0.8859999999999999,0.826,0.8222499999999999,0.74375,0.7755,0.713,0.4948393200476089,0.5076509903256325,0.5398419141209143,0.480452628986569,0.5250610164414895,0.37373986896526523,0.755099477479564,0.37047066836452
0.6459999999999999,0.6447499999999999,0.68625,0.6235,0.7145,0.6082500000000001,0.89275,0.8290000000000001,0.83025,0.75625,0.78325,0.737,0.4913052766502884,0.506762901699881,0.5421765800958281,0.48495673376843074,0.5318282675876599,0.37373986896526523,0.755099477479564,0.37047066836452
0.648,0.6467499999999999,0.6875,0.62425,0.716,0.60975,0.8995000000000001,0.8320000000000001,0.83825,0.76875,0.7909999999999999,0.7609999999999999,0.4882839442121647,0.5058046205023347,0.5449385052034059,0.4859218990850265,0.5417572669214896,0.37373986896526523,0.755099477479564,0.37047066836452
0.65,0.64875,0.68875,0.625,0.7175,0.61125,0.90625,0.835,0.84625,0.78125,0.79875,0.785,0.48652912991729486,0.5050141911069064,0.5477706228827784,0.4843909471556647,0.5526736194319153,0.13314872080410217,0.6450120154076656,0.0021947661465270335
0.6502500000000001,0.649,0.68875,0.62475,0.7172499999999999,0.61125,0.909,0.83625,0.84875,0.78625,0.8009999999999999,0.7909999999999999,0.48793908505508593,0.502157658619953,0.5456526383251442,0.48217217607757945,0.5643665411429788,0.13651566861357692,0.6450136839586068,0.0032899153442771407
0.6505,0.64925,0.68875,0.6245,0.7170000000000001,0.61125,0.91175,0.8375,0.85125,0.79125,0.80325,0.797,0.49100009155552843,0.5005798516800439,0.5426038392284921,0.47548258239803176,0.572653649594468,0.13651566861357692,0.6450136839586068,0.0032899153442771407
0.65075,0.6495000000000001,0.68875,0.62425,0.71675,0.61125,0.9145,0.83875,0.85375,0.79625,0.8055,0.8029999999999999,0.49378643147068696,0.5004669331949828,0.5389202551347392,0.4748835142989094,0.5679387616174466,0.13651566861357692,0.6450136839586068,0.0032899153442771407
0.6509999999999999,0.6497499999999999,0.68875,0.624,0.7165,0.61125,0.9172499999999999,0.84,0.85625,0.80125,0.8077500000000001,0.809,0.49613330484939117,0.499969481490524,0.534095278786584,0.47775682251882967,0.5606168177885104,0.13651566861357692,0.6450136839586068,0.0032899153442771407
0.65125,0.6502500000000001,0.68825,0.624,0.71625,0.6114999999999999,0.91925,0.8422499999999999,0.8595,0.80825,0.81025,0.81575,0.4978179265724662,0.49913937803277686,0.5292733542893765,0.4838917239493883,0.5511426661144676,0.13725410916762698,0.6459611702188536,0.0029807752238690697
0.65125,0.6505,0.6877500000000001,0.62425,0.71625,0.61175,0.9185,0.84325,0.8602500000000001,0.81025,0.8105,0.8165,0.4986266670735801,0.4975463118381298,0.5249702444532609,0.4899489684338565,0.543066340597872,0.13725410916762698,0.6459611702188536,0.0029807752238690697
0.65125,0.65075,0.6872499999999999,0.6245,0.71625,0.612,0.9177500000000001,0.84425,0.861,0.8122499999999999,0.8107500000000001,0.8172499999999999,0.4991119113742485,0.4954954680013428,0.5206244087038789,0.4947304192968351,0.5374861323272339,0.13500551795605475,0.6462778893883426,0.003288645052917319
0.65125,0.6509999999999999,0.68675,0.62475,0.71625,0.61225,0.917,0.8452500000000001,0.86175,0.8142499999999999,0.8109999999999999,0.818,0.5000427259132664,0.49497970519119844,0.5192449720755639,0.4930108719021808,0.5383403590378721,0.13500551795605475,0.6462778893883426,0.003288645052917319
0.65125,0.65125,0.68625,0.625,0.71625,0.6125,0.91625,0.84625,0.8625,0.81625,0.81125,0.81875,0.5010376293221839,0.49499191259498887,0.5188146610919523,0.4913356999672606,0.5380630132170213,0.13500551795605475,0.6462778893883426,0.003288645052917319
0.65125,0.65125,0.68625,0.625,0.71625,0.6125,0.91625,0.84625,0.8625,0.81625,0.81125,0.81875,0.5020599993896299,0.4949095126194037,0.5179357280190435,0.48980474808127655,0.5374528515782981,0.13500551795605475,0.6462778893883426,0.003288645052917319
0.6515000000000001,0.65125,0.68625,0.62475,0.71625,0.61225,0.917,0.84675,0.862,0.8172499999999999,0.812,0.8192499999999999,0.5028321176793725,0.4947233497116001,0.5163884395886105,0.49245617930617025,0.5332260933980855,0.13500551795605475,0.6462778893883426,0.003288645052917319
0.6517499999999999,0.65125,0.68625,0.6245,0.71625,0.612,0.9177500000000001,0.84725,0.8615,0.81825,0.8127500000000001,0.81975,0.5031617175817134,0.4942747276223029,0.5148869289223914,0.4957843354027659,0.5286887072600005,0.13425519013184262,0.6453317348354198,0.002668247001311544
0.652,0.65125,0.68625,0.62425,0.71625,0.61175,0.9185,0.84775,0.861,0.8192499999999999,0.8134999999999999,0.82025,0.5031250953703421,0.4937437055574206,0.5136143070772423,0.4990237407534042,0.5248169520636174,0.13425519013184262,0.6453317348354198,0.002668247001311544
0.65225,0.65125,0.68625,0.624,0.71625,0.6114999999999999,0.91925,0.8482500000000001,0.8604999999999999,0.82025,0.8142499999999999,0.82075,0.5027069917905209,0.4931272316660054,0.5118869594409009,0.501586421015452,0.5215553585059576,0.13425519013184262,0.6453317348354198,0.002668247001311544
0.6525,0.65125,0.68625,0.62375,0.71625,0.61125,0.92,0.84875,0.86,0.82125,0.815,0.82125,0.5022614215521713,0.49260536515396586,0.5106082338938567,0.5040048812285638,0.5186265807661702,0.1372422218974649,0.6440691940398389,0.0034443535351992675
0.6525,0.65125,0.68625,0.62375,0.71625,0.61125,0.92,0.84875,0.86,0.82125,0.815,0.82125,0.5018158513138218,0.4925107577745903,0.5101260414441359,0.50326159299375,0.5185267360902127,0.1372422218974649,0.6440691940398389,0.0034443535351992675
0.6525,0.65125,0.68625,0.62375,0.71625,0.61125,0.92,0.84875,0.86,0.82125,0.815,0.82125,0.5014069032868435,0.4927793206579791,0.5099368266853846,0.5024073662831117,0.5186043929061701,0.1372422218974649,0.6440691940398389,0.0034443535351992675
0.65225,0.65125,0.6859999999999999,0.62375,0.71625,0.6114999999999999,0.9207500000000001,0.8490000000000001,0.8590000000000001,0.82175,0.81525,0.8222499999999999,0.5009399700918608,0.49317606128116703,0.5097933896908475,0.5014089194584708,0.5181717327593617,0.1353782988614915,0.6447009638278758,0.002977074981696519
0.652,0.65125,0.6857500000000001,0.62375,0.71625,0.61175,0.9215000000000001,0.84925,0.858,0.8222499999999999,0.8155,0.82325,0.49939573351237526,0.49499801629688406,0.5104586931974242,0.5010317284302859,0.5135012203288298,0.1353782988614915,0.6447009638278758,0.002977074981696519
0.6517499999999999,0.65125,0.6855,0.62375,0.71625,0.612,0.9222499999999999,0.8495,0.857,0.8227500000000001,0.81575,0.8242499999999999,0.49765923032319104,0.49703360087893306,0.5113956114383373,0.5037830043745147,0.507721322532766,0.1353782988614915,0.6447009638278758,0.002977074981696519
0.6515000000000001,0.65125,0.68525,0.62375,0.71625,0.61225,0.9229999999999999,0.8497499999999999,0.856,0.82325,0.816,0.82525,0.4955046235541856,0.4991424298837245,0.5124729148228401,0.5089527404884776,0.5012757932744681,0.1353782988614915,0.6447009638278758,0.002977074981696519
0.65125,0.6515000000000001,0.68525,0.62375,0.71625,0.6125,0.9235,0.8497499999999999,0.85425,0.8245,0.81625,0.8275,0.4930875576036866,0.5012176885280923,0.5137424848170415,0.5150765482059245,0.4948968274226597,0.1353782988614915,0.6447009638278758,0.002977074981696519
0.65125,0.6517499999999999,0.6855,0.62375,0.71625,0.6125,0.92325,0.8495,0.8534999999999999,0.82525,0.81625,0.82875,0.49041413617358925,0.5032685323648793,0.5153538621173742,0.5226647443377995,0.4893942756209575,0.14024114093324935,0.643754809274953,0.00157100765074853
0.65125,0.652,0.6857500000000001,0.62375,0.71625,0.6125,0.9229999999999999,0.84925,0.85275,0.826,0.81625,0.83,0.48861659596545304,0.5038911099581896,0.5166478469191564,0.5309851348070216,0.48901708460361704,0.13575108439412564,0.6459635007066704,0.003138619297068552
0.65125,0.65225,0.6859999999999999,0.62375,0.71625,0.6125,0.9227500000000001,0.8490000000000001,0.852,0.82675,0.81625,0.83125,0.4867854853968932,0.504269539475692,0.5176946317941832,0.5358220553200005,0.4907810073495612,0.13575108439412564,0.6459635007066704,0.003138619297068552
0.65125,0.6525,0.68625,0.62375,0.71625,0.6125,0.9225,0.84875,0.85125,0.8275,0.81625,0.8325,0.48543351542710655,0.5044129764702292,0.5186040833765679,0.5384291111719155,0.49303305971880323,0.13575108439412564,0.6459635007066704,0.003138619297068552
0.6515000000000001,0.65275,0.6865000000000001,0.624,0.7165,0.61275,0.9229999999999999,0.84875,0.85225,0.82825,0.8172499999999999,0.833,0.4847529526657918,0.5043183690908536,0.5215277565843685,0.5291213674068089,0.4994453073606117,0.13575108439412564,0.6459635007066704,0.003138619297068552
0.6517499999999999,0.653,0.68675,0.62425,0.71675,0.613,0.9235,0.84875,0.8532500000000001,0.8290000000000001,0.81825,0.8334999999999999,0.4845515305032502,0.5044404431287576,0.5239875484481338,0.5184268921082983,0.5049256713023139,0.13575108439412564,0.6459635007066704,0.003138619297068552
0.652,0.65325,0.687,0.6245,0.7170000000000001,0.6132500000000001,0.924,0.84875,0.85425,0.82975,0.8192499999999999,0.8340000000000001,0.484652241584521,0.5048768578142644,0.5260170293282876,0.5084535174014898,0.5106722878289097,0.1361214915472879,0.6456491159417844,0.0034497004147721563
0.65225,0.6535,0.6872499999999999,0.62475,0.7172499999999999,0.6135,0.9245,0.84875,0.8552500000000001,0.8305,0.82025,0.8345,0.4848719748527482,0.5054841761528367,0.5283303323465682,0.5013423566809576,0.5185267366324338,0.1361214915472879,0.6456491159417844,0.0034497004147721563
0.6525,0.65375,0.6875,0.625,0.7175,0.61375,0.925,0.84875,0.85625,0.83125,0.82125,0.835,0.48519547105319377,0.5064546647541734,0.5310831019013031,0.49850232968712765,0.5315620156968092,0.13537354672974514,0.6456491159417844,0.0023529391520926268
0.6525,0.65375,0.6875,0.625,0.7175,0.61375,0.925,0.84875,0.85625,0.83125,0.82125,0.835,0.46276131473738824,0.5060090945158239,0.5475936155278176,0.5116485468586172,0.5307521643591496,0.1364942770799221,0.643124708037857,0.0036018370669163684
0.6525,0.65375,0.6875,0.625,0.7175,0.61375,0.925,0.84875,0.85625,0.83125,0.82125,0.835,0.4795129245887631,0.5012939848017823,0.5631855220191045,0.5240958512984045,0.47411804037297983,0.1364942770799221,0.643124708037857,0.0036018370669163684
0.6525,0.65375,0.6875,0.625,0.7175,0.61375,0.925,0.84875,0.85625,0.83125,0.82125,0.835,0.49640797143467513,0.49627979369487596,0.5789361247596667,0.5351675177877663,0.4162968738582993,0.13611673941554153,0.6431243711942399,0.0029742953550351277
0.652,0.65325,0.6875,0.62525,0.7172499999999999,0.6132500000000001,0.92475,0.8495,0.8565,0.8315,0.821,0.836,0.4990112002929777,0.49639576403088476,0.5806237983336894,0.5321499894755323,0.39289993615915064,0.13611673941554153,0.6431243711942399,0.0029742953550351277
0.6515000000000001,0.65275,0.6875,0.6255,0.7170000000000001,0.61275,0.9245,0.8502500000000001,0.85675,0.83175,0.82075,0.8370000000000001,0.5010284737693411,0.4956480605487228,0.5801538132877591,0.5255491464118089,0.3651542063557458,0.13611673941554153,0.6421782205581033,0.0036049317969555073
0.6509999999999999,0.65225,0.6875,0.62575,0.71675,0.61225,0.92425,0.851,0.857,0.8320000000000001,0.8205,0.838,0.5257942442091128,0.49542832728049563,0.565355388042848,0.5119591748164894,0.3463944994706395,0.13611673941554153,0.6421782205581033,0.0036049317969555073
0.6497499999999999,0.6497499999999999,0.68675,0.6245,0.7145,0.60775,0.9222499999999999,0.8490000000000001,0.85675,0.8315,0.81975,0.8384999999999999,0.5112094485305337,0.4991576891384625,0.5515518662068545,0.4991346791858509,0.3840248518468095,0.13611673941554153,0.6421782205581033,0.0036049317969555073
0.6485,0.64725,0.6859999999999999,0.6232500000000001,0.7122499999999999,0.6032500000000001,0.92025,0.847,0.8565,0.831,0.8190000000000001,0.8390000000000001,0.49613025299844354,0.5021790215765862,0.5412762840662863,0.48714222275287206,0.42600399424510665,0.2344724847106639,0.6567748843633487,0.18755196433761517
0.64775,0.6452500000000001,0.68525,0.62175,0.71025,0.59925,0.9185,0.84425,0.856,0.83025,0.8184999999999999,0.8384999999999999,0.4954496902371288,0.4999298074282052,0.5447553941465498,0.48673175011904224,0.4304193471531912,0.2344724847106639,0.6567748843633487,0.18755196433761517
0.647,0.64325,0.6845,0.62025,0.70825,0.59525,0.91675,0.8415,0.8554999999999999,0.8295,0.818,0.838,0.49543748283333844,0.4999633777886288,0.5451643421735283,0.4916685151344678,0.440581317628936,0.2803107470310849,0.6309313216050704,0.2631697943213869
0.64625,0.64125,0.68375,0.61875,0.70625,0.59125,0.915,0.83875,0.855,0.82875,0.8175,0.8375,0.4956114383373516,0.5005432294686728,0.5434980315561388,0.49844686021063817,0.4513756372563826,0.2803107470310849,0.6309313216050704,0.2631697943213869
0.644,0.63875,0.6807500000000001,0.617,0.7027500000000001,0.58975,0.91,0.835,0.84925,0.816,0.8125,0.82825,0.4956755272072512,0.5010620441297647,0.5420789208655049,0.5023186154503989,0.46629687056159513,0.2803107470310849,0.6309313216050704,0.2631697943213869
0.6417499999999999,0.63625,0.6777500000000001,0.61525,0.6992499999999999,0.58825,0.905,0.83125,0.8434999999999999,0.80325,0.8075,0.8190000000000001,0.49623401593066196,0.5022888882106998,0.5371318704794458,0.5053583314925,0.4768693138446805,0.2803107470310849,0.6309313216050704,0.2631697943213869
0.6395000000000001,0.63375,0.67475,0.6135,0.69575,0.58675,0.9,0.8275,0.8377500000000001,0.7905,0.8025,0.80975,0.4968169194616535,0.5035218359935301,0.5320108645893734,0.5078544486950798,0.487852229718218,0.5687819453901215,0.5996534176854509,0.7658592643748069
0.63725,0.63125,0.67175,0.61175,0.6922499999999999,0.5852499999999999,0.895,0.82375,0.8320000000000001,0.77775,0.7975,0.8005,0.4972228156376843,0.5028901028473769,0.5316721091341898,0.504248946148657,0.49245617926279256,0.5687819453901215,0.5996534176854509,0.7658592643748069
0.635,0.62875,0.66875,0.61,0.68875,0.58375,0.89,0.82,0.82625,0.765,0.7925,0.79125,0.49714957121494185,0.5027344584490494,0.5317484054078798,0.5006878189318351,0.49727091189408246,0.5687819453901215,0.5996534176854509,0.7658592643748069
0.634,0.628,0.66825,0.60975,0.6872499999999999,0.583,0.889,0.81825,0.82325,0.7615000000000001,0.79,0.7845,0.4971617786187323,0.5026367992187262,0.5314340647602771,0.4998890614374202,0.4984690481357048,0.5687819453901215,0.5996534176854509,0.7658592643748069
0.633,0.62725,0.6677500000000001,0.6095,0.6857500000000001,0.58225,0.888,0.8165,0.82025,0.758,0.7875,0.77775,0.49716483046967985,0.5025208288827173,0.5311014130069888,0.4990681162565159,0.4996449966691489,0.5777050097514254,0.5813617674049858,0.7897265859943476
0.632,0.6265,0.6672499999999999,0.60925,0.68425,0.5815,0.887,0.81475,0.8172499999999999,0.7545000000000001,0.785,0.7709999999999999,0.49712515640736105,0.5023438215277566,0.5309610278633992,0.49887952074784575,0.5003439094876064,0.5777050097514254,0.5813617674049858,0.7897265859943476
0.631,0.62575,0.66675,0.609,0.6827500000000001,0.58075,0.8859999999999999,0.813,0.8142499999999999,0.7509999999999999,0.7825,0.76425,0.4970763267921995,0.502249214148381,0.5308267464217048,0.4987574883637101,0.5008431329107713,0.5777050097514254,0.5813617674049858,0.7897265859943476
0.63025,0.6255,0.66675,0.609,0.682,0.58075,0.8852500000000001,0.812,0.8105,0.748,0.78,0.759,0.49704886013367106,0.5022217474898526,0.5305948057496872,0.49879076992597743,0.5011870423875332,0.4493601018616432,0.5572722237805374,0.6203255758533243
0.6305,0.626,0.6672499999999999,0.60925,0.6827500000000001,0.5815,0.8855,0.8127500000000001,0.80975,0.7484999999999999,0.78,0.7605,0.49702749717703787,0.502218695638905,0.530558183538316,0.49902374087269286,0.5008875083271277,0.4493601018616432,0.5572722237805374,0.6203255758533243
0.63075,0.6265,0.6677500000000001,0.6095,0.6835,0.58225,0.88575,0.8134999999999999,0.809,0.7490000000000001,0.78,0.762,0.49703360087893306,0.5022064882351146,0.530542924283578,0.49938983804678855,0.5004326603094748,0.4493601018616432,0.5572722237805374,0.6203255758533243
0.631,0.627,0.66825,0.60975,0.68425,0.583,0.8859999999999999,0.8142499999999999,0.80825,0.7495,0.78,0.7635,0.49704886013367106,0.5022370067445906,0.5305032502212592,0.4998890614699535,0.49990015531319815,0.4493601018616432,0.5572722237805374,0.6203255758533243
0.6315,0.6275,0.66825,0.60975,0.68475,0.58375,0.8852500000000001,0.8145,0.8065000000000001,0.74925,0.7797499999999999,0.764,0.49705496383556624,0.5022888882106998,0.5305246131778923,0.5007211005374801,0.49936765031692154,0.42249820750469697,0.5572495651720996,0.5855257040192031
0.6317499999999999,0.6275,0.6677500000000001,0.6095,0.6845,0.58375,0.88425,0.8140000000000001,0.8055,0.7484999999999999,0.7795000000000001,0.763,0.4970763267921995,0.5023041474654378,0.53060396130253,0.501342356355625,0.49885733303966756,0.4127939195220334,0.5591372093855255,0.5738185279602751
0.632,0.6275,0.6672499999999999,0.60925,0.68425,0.58375,0.88325,0.8134999999999999,0.8045,0.74775,0.77925,0.762,0.49708853419598986,0.5022919400616473,0.5306741538743248,0.5019303306331915,0.4984801420114827,0.4127939195220334,0.5591372093855255,0.5738185279602751
0.63225,0.6275,0.66675,0.609,0.684,0.58375,0.88225,0.813,0.8035,0.747,0.779,0.7609999999999999,0.49717398602252266,0.502356028931547,0.5307626575518052,0.5023629909535107,0.4984135788977926,0.4127939195220334,0.5591372093855255,0.5738185279602751
0.6325,0.6275,0.66625,0.60875,0.68375,0.58375,0.88125,0.8125,0.8025,0.74625,0.77875,0.76,0.4972685934018983,0.502432325205237,0.5308572649311808,0.502573774192048,0.49849123588726063,0.3880998023737865,0.5922589560979727,0.5520978130352796
0.6325,0.6275,0.66625,0.60875,0.68375,0.58375,0.88125,0.8125,0.8025,0.74625,0.77875,0.76,0.497384563737907,0.5024842066713462,0.5309976500747704,0.5022853339640426,0.49903483472678195,0.3880998023737865,0.5922589560979727,0.5520978130352796
0.6325,0.6275,0.66625,0.60875,0.68375,0.58375,0.88125,0.8125,0.8025,0.74625,0.77875,0.76,0.497384563737907,0.5025513473921933,0.5311441389202551,0.501708453562254,0.5001553139355585,0.4045379859753996,0.6086769568422719,0.5611473173178562
0.63225,0.627,0.66625,0.6085,0.6835,0.58325,0.8802500000000001,0.8125,0.80175,0.746,0.7785,0.7595000000000001,0.49742118594927826,0.5025635547959838,0.5312753685110019,0.5002440647791156,0.5023740847533776,0.4045379859753996,0.6086769568422719,0.5611473173178562
0.632,0.6265,0.66625,0.6082500000000001,0.68325,0.58275,0.87925,0.8125,0.8009999999999999,0.74575,0.77825,0.759,0.49736014893032626,0.5025696584978789,0.5315622425000763,0.49861326821717417,0.5048702019559574,0.4045379859753996,0.6086769568422719,0.5611473173178562
0.6317499999999999,0.626,0.66625,0.608,0.6829999999999999,0.58225,0.87825,0.8125,0.80025,0.7454999999999999,0.778,0.7585,0.49727469710379346,0.5025818659016693,0.5319162572099979,0.49672731300033907,0.507976481144282,0.4045379859753996,0.6086769568422719,0.5611473173178562
0.6315,0.6255,0.66625,0.60775,0.6827500000000001,0.58175,0.87725,0.8125,0.7995,0.7452500000000001,0.77775,0.758,0.49726248970000303,0.5026612140263069,0.5323160496841335,0.49485245171350395,0.5114821389496809,0.4187228216064966,0.6232046342913523,0.5736343930046237
0.63125,0.625,0.66625,0.6075,0.6825,0.58125,0.87625,0.8125,0.79875,0.745,0.7775,0.7575,0.49735099337748345,0.5028534806360058,0.5329416791283914,0.49287774569648934,0.5154648327520215,0.512940297673255,0.6134430355181147,0.6225413136607071
0.63125,0.625,0.66475,0.6072500000000001,0.6822499999999999,0.58075,0.87875,0.8122499999999999,0.8022499999999999,0.74875,0.7805,0.7645000000000001,0.4976470229194006,0.5035920285653249,0.5353465376751,0.4906145994189361,0.5208120707482983,0.512940297673255,0.6134430355181147,0.6225413136607071
0.63125,0.625,0.66325,0.607,0.682,0.5802499999999999,0.88125,0.812,0.8057500000000001,0.7525,0.7835,0.7715000000000001,0.4980468153935362,0.5033509323404645,0.5382000183111056,0.49237852222994677,0.5311626364724471,0.5100150667563228,0.6150042978503808,0.6037315899209358
0.63125,0.625,0.66175,0.60675,0.68175,0.57975,0.88375,0.81175,0.80925,0.75625,0.7865000000000001,0.7785,0.49835505233924376,0.5037903988769189,0.541132847071749,0.49356556462832446,0.5455957410219155,0.5100150667563228,0.6150042978503808,0.6037315899209358
0.63275,0.6267499999999999,0.66325,0.6072500000000001,0.68525,0.583,0.8925,0.8170000000000001,0.8190000000000001,0.7685,0.79375,0.7922499999999999,0.4986816003906369,0.5045777764213996,0.547117526779992,0.4960838694740159,0.5762480607051077,0.5100150667563228,0.6150042978503808,0.6037315899209358
0.63425,0.6285000000000001,0.66475,0.60775,0.68875,0.58625,0.90125,0.8222499999999999,0.82875,0.78075,0.8009999999999999,0.8059999999999999,0.49932248908963284,0.5055116428113651,0.554445020905179,0.4985134234869946,0.6156867122195762,0.5100150667563228,0.6150042978503808,0.6037315899209358
0.63575,0.63025,0.6677500000000001,0.6085,0.6925,0.59,0.9075,0.8277500000000001,0.835,0.78925,0.80525,0.8127500000000001,0.4998718222602008,0.5058870204779199,0.5597491378521073,0.5022520523909308,0.6601286897268092,0.5100150667563228,0.6150042978503808,0.6037315899209358
0.63725,0.632,0.6707500000000001,0.60925,0.69625,0.59375,0.91375,0.83325,0.84125,0.7977500000000001,0.8095,0.8195,0.49924924466689047,0.5077669606616413,0.5629261146885586,0.5027734635439628,0.7012203232774463,0.49214279436831393,0.6111920388781457,0.5747740468502873
0.63875,0.63375,0.67375,0.61,0.7,0.5975,0.92,0.83875,0.8475,0.80625,0.81375,0.82625,0.49843134861293376,0.50780663472396,0.5646046327097385,0.5038051919634042,0.7365986241736169,0.2984654774309672,0.6441988083303181,0.3754137049291031
0.63875,0.63375,0.67375,0.61,0.7,0.5975,0.92,0.83875,0.8475,0.80625,0.81375,0.82625,0.4964690084536271,0.507052827539903,0.5614459669789728,0.4987242066387765,0.7552252025106366,0.23173225840082382,0.6946540458204612,0.2756920924415203
0.63875,0.63375,0.67375,0.61,0.7,0.5975,0.92,0.83875,0.8475,0.80625,0.81375,0.82625,0.4923612170781579,0.5041138950773644,0.5547868282113102,0.4904814730397339,0.7636898145361695,0.23173225840082382,0.6946540458204612,0.2756920924415203
0.63875,0.63375,0.67375,0.61,0.7,0.5975,0.92,0.83875,0.8475,0.80625,0.81375,0.82625,0.4925473799859615,0.5027161473433638,0.547087008270516,0.4825715549115423,0.7564122492034052,0.23173225840082382,0.6946540458204612,0.2756920924415203
0.6405,0.637,0.6757500000000001,0.6132500000000001,0.7027500000000001,0.599,0.9207500000000001,0.84075,0.84775,0.80875,0.81475,0.8270000000000001,0.49087191381572925,0.5003082369457076,0.5358958708456679,0.4796760590485104,0.6987685855687255,0.23173225840082382,0.6946540458204612,0.2756920924415203
0.64225,0.6402500000000001,0.6777500000000001,0.6164999999999999,0.7055,0.6004999999999999,0.9215000000000001,0.8427500000000001,0.848,0.81125,0.81575,0.8277500000000001,0.48874782555619983,0.4990508743552965,0.526258125553148,0.48024184566127637,0.6283558931772355,0.23173225840082382,0.6946540458204612,0.2756920924415203
0.644,0.6435,0.67975,0.61975,0.70825,0.602,0.9222499999999999,0.8447499999999999,0.8482500000000001,0.81375,0.81675,0.8284999999999999,0.4870784630878628,0.4980162968840602,0.5179845576342051,0.4874195694412765,0.5532837848878749,0.16581115878918773,0.6876572672909799,0.13645178489473642
0.64575,0.6467499999999999,0.68175,0.623,0.711,0.6035,0.9229999999999999,0.84675,0.8484999999999999,0.81625,0.8177500000000001,0.8292499999999999,0.48642536698507644,0.4987121189001129,0.510956144901883,0.5004215665638299,0.47752385363255434,0.16581115878918773,0.6876572672909799,0.13645178489473642
0.6475,0.65,0.68375,0.62625,0.71375,0.605,0.92375,0.84875,0.84875,0.81875,0.81875,0.83,0.48103579821161535,0.4977874080629902,0.5048341319009979,0.514532949051915,0.41182604782999965,0.13613337881745,0.6421728898120215,0.0036054059336994536
0.64775,0.6502500000000001,0.68475,0.6265,0.7142499999999999,0.60525,0.92425,0.8504999999999999,0.8497499999999999,0.8192499999999999,0.8190000000000001,0.831,0.4780938138981292,0.4969542527542955,0.5031128879665517,0.5235411584421278,0.3960949630136168,0.13613337881745,0.6421728898120215,0.0036054059336994536
0.648,0.6505,0.6857500000000001,0.6267499999999999,0.71475,0.6054999999999999,0.92475,0.85225,0.85075,0.81975,0.8192499999999999,0.8320000000000001,0.47549363689077423,0.4958708456678976,0.5004181035798212,0.529820280138511,0.39914577328936174,0.13613337881745,0.6421728898120215,0.0036054059336994536
0.64825,0.65075,0.68675,0.627,0.71525,0.60575,0.92525,0.8540000000000001,0.85175,0.82025,0.8195,0.833,0.47309793389690846,0.4948240607928709,0.49727469710379346,0.5333370316570215,0.4140337253251064,0.13613337881745,0.6421728898120215,0.0036054059336994536
0.6485,0.6509999999999999,0.6877500000000001,0.62725,0.71575,0.606,0.9257500000000001,0.85575,0.85275,0.82075,0.81975,0.8340000000000001,0.47302163762321847,0.49440290536210213,0.4963133640552995,0.5301087200628726,0.45247393008000036,0.13650378597061225,0.6405946325442307,0.002976722342493205
0.649,0.6509999999999999,0.6890000000000001,0.6275,0.7165,0.60625,0.9265000000000001,0.858,0.85375,0.8220000000000001,0.82025,0.8355,0.47375408185064244,0.4942442091128269,0.49602038636433,0.5262924341694682,0.48757488446127717,0.13650378597061225,0.6405946325442307,0.002976722342493205
0.64925,0.65075,0.6892499999999999,0.6275,0.71675,0.60625,0.92675,0.8584999999999999,0.85375,0.8227500000000001,0.8205,0.836,0.47538987395855586,0.4945616016113773,0.4967558824427015,0.5223873975301064,0.5198469057787239,0.13650378597061225,0.6405946325442307,0.002976722342493205
0.6495000000000001,0.6505,0.6895,0.6275,0.7170000000000001,0.60625,0.927,0.8590000000000001,0.85375,0.8234999999999999,0.82075,0.8365,0.4776451918088321,0.49517807550279247,0.49850764488662375,0.5187375191986169,0.5445418246123409,0.13687181474430263,0.6418581682035183,0.001098697321050647
0.6497499999999999,0.6502500000000001,0.68975,0.6275,0.7172499999999999,0.60625,0.9272499999999999,0.8595,0.85375,0.8242499999999999,0.821,0.8370000000000001,0.480565813165685,0.4959044160283212,0.5012787255470443,0.5163523409056383,0.5588861778953197,0.13463986293463887,0.6415441163654633,0.0018798010586625969
0.65,0.65,0.69,0.6275,0.7175,0.60625,0.9275,0.86,0.85375,0.825,0.82125,0.8375,0.48219244972075564,0.49615161595507673,0.5026062807092502,0.5181273573863829,0.54806966971383,0.13463986293463887,0.6415441163654633,0.0018798010586625969
0.65,0.65,0.69,0.6275,0.7175,0.60625,0.9275,0.86,0.85375,0.825,0.82125,0.8375,0.4837031159398175,0.49634693441572314,0.5037385174108097,0.5169735966478723,0.5353006441669685,0.13463986293463887,0.6415441163654633,0.0018798010586625969
0.6502500000000001,0.6502500000000001,0.69025,0.6275,0.7177500000000001,0.6065,0.9277500000000001,0.8604999999999999,0.85425,0.82525,0.821,0.8377500000000001,0.48675191503646964,0.49808343760490736,0.5052247688222907,0.5133459064149601,0.5174506326014363,0.13463986293463887,0.6415441163654633,0.0018798010586625969
0.6505,0.6505,0.6905,0.6275,0.718,0.60675,0.9279999999999999,0.861,0.8547499999999999,0.8255,0.82075,0.838,0.48973967711416977,0.499893185216834,0.5067049165318765,0.5115930774471942,0.5029620589224999,0.13463986293463887,0.6415441163654633,0.0018798010586625969
0.65075,0.65075,0.69075,0.6275,0.71825,0.607,0.92825,0.8615,0.8552500000000001,0.82575,0.8205,0.83825,0.4926084170049135,0.5017181920834987,0.508737449262978,0.5129909029105983,0.49419791408367003,0.13463986293463887,0.6415441163654633,0.0018798010586625969
0.6509999999999999,0.6509999999999999,0.691,0.6275,0.7184999999999999,0.6072500000000001,0.9285,0.862,0.85575,0.826,0.82025,0.8384999999999999,0.4954344309823908,0.5035157322916348,0.511459700308237,0.5159418685103858,0.48984912334581104,0.1353782988614915,0.6450146827390998,0.004072535331684835
0.65125,0.65125,0.69125,0.6275,0.71875,0.6075,0.92875,0.8625,0.85625,0.82625,0.82,0.83875,0.5027039399395733,0.504498428296762,0.5145573290200507,0.5210006658882581,0.48916130441397593,0.1346279756644768,0.6402815794866686,0.0018810960446445008
0.6517499999999999,0.6517499999999999,0.6915,0.62775,0.7190000000000001,0.6085,0.92925,0.86275,0.85575,0.82675,0.8205,0.8395,0.5062715536973175,0.4953703421124912,0.5253547776726585,0.5099068116473404,0.45327268690206113,0.1346279756644768,0.6402815794866686,0.0018810960446445008
0.65225,0.65225,0.69175,0.628,0.71925,0.6095,0.92975,0.863,0.8552500000000001,0.8272499999999999,0.821,0.84025,0.5041871395001069,0.49644764549699394,0.5328135013885922,0.49592855614574505,0.40095407080099693,0.1346279756644768,0.6402815794866686,0.0018810960446445008
0.65275,0.65275,0.6920000000000001,0.62825,0.7195,0.6104999999999999,0.93025,0.8632500000000001,0.8547499999999999,0.8277500000000001,0.8215,0.841,0.5055146946623127,0.4958647419660024,0.5465956602679525,0.4936432221817024,0.35678943685897496,0.1361214915472879,0.6424902709183861,0.0036000620174812224
0.65325,0.65325,0.6922499999999999,0.6285000000000001,0.7197499999999999,0.6114999999999999,0.9307500000000001,0.8634999999999999,0.85425,0.82825,0.8220000000000001,0.84175,0.5031189916684469,0.498178044984283,0.5593829157383954,0.49092522772382996,0.3174950043740671,0.1361214915472879,0.6424902709183861,0.0036000620174812224
0.65375,0.65375,0.6925,0.62875,0.72,0.6125,0.93125,0.86375,0.85375,0.82875,0.8225,0.8425,0.49821466719565416,0.5006469924008912,0.5666707358012635,0.47953183969361723,0.2856223611097847,0.1361214915472879,0.6424902709183861,0.0036000620174812224
0.653,0.65125,0.6905,0.62775,0.718,0.611,0.9307500000000001,0.8632500000000001,0.85425,0.8290000000000001,0.82325,0.8427500000000001,0.4953581347087008,0.5092532120731224,0.567268898586993,0.48674284491659603,0.3057355184323379,0.1361214915472879,0.6424902709183861,0.0036000620174812224
0.65225,0.64875,0.6884999999999999,0.6267499999999999,0.716,0.6095,0.93025,0.86275,0.8547499999999999,0.8292499999999999,0.8240000000000001,0.843,0.49748832667012544,0.508127079073458,0.5668965727713858,0.4946416682472339,0.35042156309361494,0.1361214915472879,0.6424902709183861,0.0036000620174812224
0.6515000000000001,0.64625,0.6865000000000001,0.62575,0.7140000000000001,0.608,0.92975,0.86225,0.8552500000000001,0.8295,0.82475,0.84325,0.4956297494430372,0.5080843531601916,0.5573168126468703,0.4883292654548935,0.3874861302451049,0.20911123212054963,0.7227349513018524,0.17667731115839508
0.65075,0.64375,0.6845,0.62475,0.7120000000000001,0.6065,0.92925,0.86175,0.85575,0.82975,0.8255,0.8434999999999999,0.4968108157597583,0.504498428296762,0.5472060304574724,0.482538273555319,0.41807188738936124,0.3393248244324464,0.7518629743352503,0.3433088737612509
0.65,0.64125,0.6825,0.62375,0.71,0.605,0.92875,0.86125,0.85625,0.83,0.82625,0.84375,0.49595324564348275,0.5016724143192847,0.5420911282692953,0.4856778343167552,0.44105835349574457,0.3992195639276405,0.6250666353052203,0.4989715248001901
0.65,0.64125,0.6825,0.62375,0.71,0.605,0.92875,0.86125,0.85625,0.83,0.82625,0.84375,0.49501022370067443,0.5013336588641011,0.5354960783715323,0.4892833369716223,0.4534945640055319,0.3992195639276405,0.6250666353052203,0.4989715248001901
0.648,0.6395000000000001,0.6795,0.62125,0.70675,0.60125,0.92525,0.85575,0.856,0.8292499999999999,0.8242499999999999,0.8422499999999999,0.49475081637012847,0.5009247108371228,0.5320322275460067,0.4906700688520479,0.45548036394170216,0.4537697377096743,0.5960585521002719,0.5381770614300782
0.6459999999999999,0.63775,0.6765000000000001,0.61875,0.7034999999999999,0.5975,0.92175,0.8502500000000001,0.85575,0.8284999999999999,0.8222499999999999,0.84075,0.4941923276467177,0.5005981627857296,0.5299447614978484,0.49315509199449464,0.45918571122914903,0.4537697377096743,0.5960585521002719,0.5381770614300782
0.64125,0.634,0.6715000000000001,0.61475,0.6972499999999999,0.5920000000000001,0.9145,0.8405,0.84875,0.8175,0.81625,0.833,0.49500411999877925,0.5013306070131535,0.5299569689016388,0.49591746165183503,0.46742844469805855,0.4537697377096743,0.5960585521002719,0.5381770614300782
0.6365,0.63025,0.6665000000000001,0.61075,0.691,0.5865,0.9072499999999999,0.83075,0.84175,0.8065000000000001,0.81025,0.82525,0.4955595568712424,0.501989806817835,0.5297891170995208,0.4974927889216422,0.4756822721837235,0.4537697377096743,0.5960585521002719,0.5381770614300782
0.63125,0.626,0.6607500000000001,0.60625,0.68425,0.58075,0.8975,0.8195,0.83325,0.7915000000000001,0.80175,0.812,0.4959105197302164,0.5024842066713462,0.5293038727988525,0.49781451070107047,0.4837696915869415,0.4537697377096743,0.5960585521002719,0.5381770614300782
0.628,0.6235,0.6579999999999999,0.60425,0.6807500000000001,0.57875,0.89125,0.81375,0.825,0.77725,0.79525,0.80025,0.49609973448896755,0.502462843714713,0.5298165837580493,0.4996893720746609,0.4934324383358776,0.48012058587519213,0.597459386784655,0.7897559646923447
0.62475,0.621,0.6552500000000001,0.6022500000000001,0.6772499999999999,0.57675,0.885,0.8079999999999999,0.81675,0.763,0.78875,0.7885,0.49704886013367106,0.5029175695059054,0.5310098574785608,0.4992788994408311,0.4980918571400532,0.48012058587519213,0.597459386784655,0.7897559646923447
0.62425,0.6204999999999999,0.6545000000000001,0.60175,0.67675,0.5765,0.8825,0.8065000000000001,0.81525,0.759,0.78625,0.7829999999999999,0.49705496383556624,0.5029206213568529,0.5309335612048708,0.49734856880763956,0.4982915465136569,0.48012058587519213,0.597459386784655,0.7897559646923447
0.62425,0.6204999999999999,0.6545000000000001,0.60175,0.6775,0.57675,0.8802500000000001,0.805,0.8134999999999999,0.7545000000000001,0.78375,0.777,0.49703360087893306,0.5027649769585254,0.5308084353160192,0.4978256045334707,0.4982804526487234,0.48012058587519213,0.597459386784655,0.7897559646923447
0.62475,0.621,0.6552500000000001,0.6022500000000001,0.67875,0.57725,0.8805,0.805,0.81325,0.754,0.78375,0.7765000000000001,0.49700308236945706,0.5025940733054598,0.53068025757622,0.49869092515242014,0.49844686044921543,0.4888277405778612,0.5901795460299035,0.7385975968175648
0.62525,0.6214999999999999,0.6559999999999999,0.60275,0.68,0.57775,0.88075,0.805,0.813,0.7535,0.78375,0.7759999999999999,0.4969664601580859,0.5024567400128178,0.5305856501968443,0.4999778122267553,0.4984135788761037,0.3250254980556817,0.6007516884658408,0.4906394615195019
0.62575,0.622,0.65675,0.6032500000000001,0.68125,0.57825,0.8809999999999999,0.805,0.8127500000000001,0.753,0.78375,0.7755,0.4968810083315531,0.5023346659749138,0.5304635761589404,0.5016418903618085,0.49824717105392285,0.3250254980556817,0.6007516884658408,0.4906394615195019
0.62575,0.62225,0.657,0.60375,0.6809999999999999,0.5785,0.87925,0.8045,0.81125,0.752,0.7827500000000001,0.77425,0.4969664601580859,0.5024445326090273,0.530497146519364,0.5029176835928989,0.498824051444867,0.33625420234550135,0.6083292519767843,0.4884535261698308
0.62525,0.622,0.6565000000000001,0.60375,0.6795,0.57825,0.87725,0.804,0.81,0.7515000000000001,0.78175,0.7735,0.49707327494125186,0.5026276436658833,0.5308481093783379,0.5020190814225266,0.5000332815514229,0.33625420234550135,0.6083292519767843,0.4884535261698308
0.62425,0.62075,0.6555,0.6035,0.677,0.57725,0.8755,0.8035,0.8085,0.75075,0.7809999999999999,0.773,0.49718008972441785,0.5028107547227394,0.5311990722373119,0.5011204792521543,0.5012425116579787,0.33625420234550135,0.6083292519767843,0.4884535261698308
0.6232500000000001,0.6195,0.6545000000000001,0.6032500000000001,0.6745,0.57625,0.87375,0.8029999999999999,0.807,0.75,0.7802500000000001,0.7725,0.49725943784905546,0.5029267250587481,0.5315073091830195,0.4992678056084308,0.5036276902546011,0.35528761902591977,0.6193857128657114,0.5082679278898978
0.62225,0.6182500000000001,0.6535,0.603,0.672,0.57525,0.872,0.8025,0.8055,0.74925,0.7795000000000001,0.772,0.497338785973693,0.5030426953947569,0.5318155461287271,0.49741513196470744,0.5060128688512234,0.5050357581256004,0.6620869434580648,0.6394120966730723
0.62175,0.61725,0.653,0.60275,0.6709999999999999,0.5745,0.87225,0.8025,0.80525,0.7490000000000001,0.7797499999999999,0.77225,0.49729911191137427,0.5029725028229621,0.532029175695059,0.4958176170192553,0.508120701063085,0.5050357581256004,0.6620869434580648,0.6394120966730723
0.62125,0.61625,0.6525,0.6025,0.67,0.57375,0.8725,0.8025,0.805,0.74875,0.78,0.7725,0.49718008972441785,0.5028992584002198,0.532181768242439,0.49456401143127654,0.5103172840209041,0.5050357581256004,0.6620869434580648,0.6394120966730723
0.622,0.61725,0.65275,0.6025,0.6707500000000001,0.57375,0.87575,0.80375,0.8077500000000001,0.7555,0.7829999999999999,0.78,0.4975463118381298,0.5029297769096958,0.5346354564043092,0.4945972929826994,0.5291324609897875,0.5050357581256004,0.6620869434580648,0.6394120966730723
0.62275,0.6182500000000001,0.653,0.6025,0.6715000000000001,0.57375,0.879,0.805,0.8105,0.76225,0.7859999999999999,0.7875,0.49741203039643545,0.5033417767876217,0.536909085360271,0.49588418007872337,0.5499556251475536,0.5050357581256004,0.6620869434580648,0.6394120966730723
0.6235,0.61925,0.65325,0.6025,0.6722499999999999,0.57375,0.88225,0.80625,0.81325,0.769,0.789,0.795,0.49746696371349225,0.5041077913754692,0.5393505661183507,0.49869092519579783,0.573596628786171,0.5136430856712136,0.6595625316373512,0.6430576975492398
0.62425,0.62025,0.6535,0.6025,0.6729999999999999,0.57375,0.8855,0.8075,0.816,0.77575,0.792,0.8025,0.4971465193639943,0.5046449171422468,0.5431257057405317,0.5031173730749469,0.5974040391191495,0.3409463008326036,0.6392106361239226,0.44166655090650986
0.625,0.62125,0.65375,0.6025,0.67375,0.57375,0.88875,0.80875,0.81875,0.7825,0.795,0.81,0.4975615710928678,0.5049958800012208,0.5485122226630451,0.5070445975743086,0.6295984025795746,0.3409463008326036,0.6392106361239226,0.44166655090650986
0.625,0.62125,0.65375,0.6025,0.67375,0.57375,0.88875,0.80875,0.81875,0.7825,0.795,0.81,0.49847712637714775,0.5064149906918546,0.5526383251442,0.5101841583140561,0.6498003099540421,0.3409463008326036,0.6392106361239226,0.44166655090650986
0.62725,0.62375,0.6577500000000001,0.605,0.67875,0.579,0.8955,0.81475,0.8225,0.789,0.79875,0.8140000000000001,0.497811822870571,0.5065706350901822,0.5536820581682791,0.5084978924274469,0.677080096779574,0.2879989836083243,0.6536896749213902,0.3714133677823179
0.6295000000000001,0.62625,0.66175,0.6075,0.68375,0.5842499999999999,0.90225,0.82075,0.82625,0.7955,0.8025,0.818,0.49897762993255407,0.5069429609057894,0.5505325479903561,0.501131573225532,0.6939205666144672,0.2879989836083243,0.6536896749213902,0.3714133677823179
0.6317499999999999,0.62875,0.6657500000000001,0.61,0.68875,0.5895,0.909,0.82675,0.83,0.802,0.80625,0.8220000000000001,0.5005310220648823,0.5075869014557329,0.5459669789727469,0.4923785221431914,0.7099179047097868,0.2879989836083243,0.6536896749213902,0.3714133677823179
0.634,0.63125,0.66975,0.6125,0.69375,0.59475,0.9157500000000001,0.8327500000000001,0.83375,0.8085,0.81,0.826,0.49926145207068084,0.5078585161900693,0.5376964629047517,0.48899489657010625,0.7105391620136174,0.2879989836083243,0.6536896749213902,0.3714133677823179
0.63775,0.6367499999999999,0.6759999999999999,0.61625,0.7015,0.60025,0.92175,0.8405,0.83875,0.81575,0.8142499999999999,0.83025,0.4987029633472701,0.5066225165562914,0.5263832514419996,0.488207232918936,0.689227868579575,0.1528944297459719,0.6623848346360656,0.04158372850252026
0.63925,0.63975,0.67825,0.6175,0.7042499999999999,0.6004999999999999,0.9209999999999999,0.8422499999999999,0.84,0.8165,0.81475,0.8305,0.5008301034577471,0.505969420453505,0.5180639057588428,0.49355447074170206,0.6495895284072346,0.13725886129937337,0.6431190443649443,0.005014717150203934
0.64075,0.64275,0.6805,0.61875,0.7070000000000001,0.60075,0.92025,0.8440000000000001,0.84125,0.8172499999999999,0.81525,0.83075,0.5001464888454847,0.5042603839228492,0.5144230475783562,0.5050144220048937,0.6040048820093621,0.13613575256972446,0.6453290675039857,0.0046977893337765315
0.64225,0.64575,0.6827500000000001,0.62,0.70975,0.601,0.9195,0.84575,0.8425,0.818,0.81575,0.831,0.4978667561876278,0.5020142216254159,0.5116733298745689,0.5159307745153192,0.5492678054782978,0.13612862205850618,0.6412267352590986,0.001723611525142514
0.6445000000000001,0.649,0.6859999999999999,0.62225,0.7134999999999999,0.60175,0.919,0.84875,0.8440000000000001,0.82,0.81675,0.8322499999999999,0.49496444593646044,0.49922482985930966,0.5080904568620869,0.51116041740883,0.4985799852885098,0.13612862205850618,0.6412267352590986,0.001723611525142514
0.6455,0.6495000000000001,0.6875,0.6235,0.71475,0.6025,0.92025,0.8504999999999999,0.8445,0.8215,0.8177500000000001,0.8340000000000001,0.49183324686422314,0.4988189336832789,0.5086397900326548,0.5082982030755321,0.47469491779255246,0.13612862205850618,0.6412267352590986,0.001723611525142514
0.6465000000000001,0.65,0.6890000000000001,0.62475,0.716,0.6032500000000001,0.9215000000000001,0.85225,0.845,0.823,0.81875,0.83575,0.4881191442609943,0.4987609485152745,0.509689626758629,0.505824273516064,0.4584867967623395,0.13612862205850618,0.6412267352590986,0.001723611525142514
0.6475,0.6505,0.6905,0.626,0.7172499999999999,0.604,0.9227500000000001,0.8540000000000001,0.8454999999999999,0.8245,0.81975,0.8375,0.4851741080965606,0.49916989654225286,0.5103579821161535,0.5030175286592555,0.4552252035517011,0.13351200207324357,0.6396501426254627,0.0018815978393651807
0.6485,0.6509999999999999,0.6920000000000001,0.62725,0.7184999999999999,0.60475,0.924,0.85575,0.846,0.826,0.82075,0.8392499999999999,0.4839106418042543,0.49992370372631,0.5103518784142582,0.5014754827998937,0.46029509520659495,0.1361262483062317,0.6421748873730073,0.0021954546325906395
0.64875,0.65125,0.6925,0.6275,0.71875,0.605,0.925,0.85625,0.84625,0.82625,0.82125,0.84,0.4854670857875301,0.5016663106173894,0.513403729361858,0.5105502554230853,0.4668182823219147,0.1361262483062317,0.6421748873730073,0.0021954546325906395
0.64925,0.6515000000000001,0.6927500000000001,0.6275,0.7190000000000001,0.6054999999999999,0.92525,0.8565,0.84625,0.82675,0.82175,0.83975,0.4855922116763817,0.5013550218207343,0.5146031067842647,0.5141335701745746,0.46322387364042533,0.1361262483062317,0.6421748873730073,0.0021954546325906395
0.65,0.652,0.693,0.6275,0.71925,0.60575,0.9255,0.85725,0.84725,0.8272499999999999,0.8222499999999999,0.84,0.4864009521774956,0.5026245918149358,0.5172673726615192,0.5175726650506385,0.459862436100851,0.13613100043797807,0.6393340932264219,0.0011051762020997029
0.65075,0.6525,0.69325,0.6275,0.7195,0.606,0.9257500000000001,0.858,0.8482500000000001,0.8277500000000001,0.8227500000000001,0.84025,0.48723105563524277,0.5039124729148229,0.5196600238044374,0.5193920570778725,0.4571222544770214,0.13613100043797807,0.6393340932264219,0.0011051762020997029
0.6515000000000001,0.653,0.6934999999999999,0.6275,0.7197499999999999,0.60625,0.9259999999999999,0.85875,0.84925,0.82825,0.82325,0.8405,0.48642536698507644,0.5055330057679983,0.5229163487655263,0.5228755271534044,0.45891945899127684,0.13613100043797807,0.6393340932264219,0.0011051762020997029
0.65225,0.6535,0.69375,0.6275,0.72,0.6065,0.92625,0.8595,0.8502500000000001,0.82875,0.82375,0.84075,0.4878048036133915,0.5044404431287576,0.5284829248939482,0.5204570668101596,0.4293432442717024,0.13613100043797807,0.6393340932264219,0.0011051762020997029
0.6525,0.65375,0.69375,0.6275,0.72,0.60625,0.92625,0.86,0.85125,0.82875,0.82375,0.84125,0.48975493636890777,0.5039551988280893,0.5308816797387615,0.515176392393883,0.3954071445589362,0.13650140759114035,0.6418598367544593,0.002037631302873709
0.652,0.65225,0.6927500000000001,0.6267499999999999,0.71875,0.606,0.9259999999999999,0.85925,0.851,0.82875,0.8240000000000001,0.8415,0.49295327616199225,0.5031983397930845,0.5365367595446638,0.5052917684330319,0.38025294097936235,0.13912041058307234,0.6424892721378932,0.004231331629511741
0.6515000000000001,0.65075,0.69175,0.626,0.7175,0.60575,0.9257500000000001,0.8584999999999999,0.85075,0.82875,0.8242499999999999,0.84175,0.49435712759788814,0.5037446211127049,0.5394116031373027,0.5007543820129919,0.38071888256914943,0.13912041058307234,0.6424892721378932,0.004231331629511741
0.6509999999999999,0.64925,0.69075,0.62525,0.71625,0.6054999999999999,0.9255,0.85775,0.8504999999999999,0.82875,0.8245,0.8420000000000001,0.4977599414044618,0.5025055696279793,0.5408337656788842,0.49479698263825805,0.3797759047655323,0.13912041058307234,0.6424892721378932,0.004231331629511741
0.6505,0.64775,0.68975,0.6245,0.715,0.60525,0.92525,0.857,0.8502500000000001,0.82875,0.82475,0.8422499999999999,0.4992065187536241,0.503628650776696,0.5393078402050844,0.49562902174916235,0.41239183513680866,0.14616528625876868,0.6286216710910553,0.04944459073593441
0.65,0.64625,0.68875,0.62375,0.71375,0.605,0.925,0.85625,0.85,0.82875,0.825,0.8425,0.49966429639576404,0.5040284432508316,0.5402172917874691,0.5027179946096944,0.452274240381064,0.1968830254256585,0.6554733597942534,0.1000771113281303
0.64775,0.6435,0.68675,0.62225,0.7115,0.60175,0.9172499999999999,0.8482500000000001,0.84125,0.81175,0.8165,0.825,0.49805902279732656,0.5037781914731284,0.5355113376262703,0.5138451300550134,0.4739405361048931,0.19125480788369123,0.7339257148743961,0.4550670144824505
0.6455,0.64075,0.68475,0.62075,0.7092499999999999,0.5985,0.9095,0.84025,0.8325,0.79475,0.8079999999999999,0.8075,0.49847712637714775,0.5022156437879574,0.53389690847499,0.5154537389087768,0.4806855995645741,0.5521254830047967,0.6425630761411417,0.6606788592504244
0.642,0.63725,0.68125,0.6185,0.7055,0.59475,0.899,0.83125,0.82075,0.7755,0.79675,0.778,0.4984038819544053,0.5022370067445906,0.5326883754997406,0.5149545154422341,0.48666518723308494,0.5521254830047967,0.6425630761411417,0.6606788592504244
0.6385000000000001,0.6335000000000001,0.6775,0.61625,0.70175,0.591,0.88825,0.82175,0.80825,0.755,0.7845,0.747,0.4980346079897458,0.5027558214056825,0.5316751609851375,0.5132238741609576,0.49216773894803184,0.5639904130577438,0.6318599877074013,0.7076290442344305
0.635,0.62975,0.67375,0.614,0.698,0.58725,0.8775,0.8122499999999999,0.7957500000000001,0.7345,0.77225,0.716,0.49804376354258856,0.5033600878933073,0.5310281685842464,0.5084646106049135,0.4951963611794215,0.5639904130577438,0.6318599877074013,0.7076290442344305
0.63375,0.62875,0.672,0.6132500000000001,0.6965,0.58675,0.8745,0.8107500000000001,0.792,0.731,0.7685,0.7025,0.49822992645039216,0.5032624286629841,0.5310434278389844,0.5021965831204854,0.49778122923640294,0.5639904130577438,0.6318599877074013,0.7076290442344305
0.6325,0.62775,0.67025,0.6125,0.695,0.58625,0.8715,0.80925,0.78825,0.7275,0.7647499999999999,0.6890000000000001,0.49822382274849697,0.5032441175572985,0.5308328501235999,0.5000998446868019,0.4997781229290625,0.5496962413789008,0.6211442323869388,0.7378777910586661
0.6325,0.6275,0.67,0.6125,0.695,0.58625,0.87125,0.80875,0.7875,0.72625,0.76375,0.6875,0.49825128940702534,0.5032288583025605,0.530588702047792,0.49892389617504657,0.5004437541744082,0.5496962413789008,0.6211442323869388,0.7378777910586661
0.6325,0.6275,0.67,0.6125,0.695,0.58625,0.87125,0.80875,0.7875,0.72625,0.76375,0.6875,0.4982634968108158,0.5031647694326609,0.5306405835139012,0.4983802973355253,0.5004659418825864,0.5496962413789008,0.6211442323869388,0.7378777910586661
0.6325,0.6275,0.67,0.6125,0.695,0.58625,0.87125,0.80875,0.7875,0.72625,0.76375,0.6875,0.4982787560655538,0.5031373027741325,0.5307809686574908,0.4979587308909841,0.5006767251102793,0.44152448904669955,0.6131686489743813,0.6044411128392002
0.6325,0.6275,0.67,0.6125,0.695,0.58625,0.87125,0.80875,0.7875,0.72625,0.76375,0.6875,0.49825434125797297,0.5031403546250801,0.5308755760368664,0.49767029068466756,0.5012092301282447,0.4194755231829832,0.6197877318060833,0.5938152431606686
0.6325,0.6275,0.67,0.6125,0.695,0.58625,0.87125,0.80875,0.7875,0.72625,0.76375,0.6875,0.49816583758049254,0.5030396435438094,0.5308816797387615,0.4974040381648404,0.5016197027186968,0.4194755231829832,0.6197877318060833,0.5938152431606686
0.632,0.62725,0.67,0.6125,0.69475,0.586,0.8704999999999999,0.8079999999999999,0.7872499999999999,0.72625,0.76325,0.6877500000000001,0.4980468153935362,0.5029633472701194,0.5308694723349712,0.4979809185557846,0.5013312625015359,0.4194755231829832,0.6197877318060833,0.5938152431606686
0.6315,0.627,0.67,0.6125,0.6945,0.58575,0.8697499999999999,0.8072499999999999,0.787,0.72625,0.76275,0.688,0.4980498672444838,0.5030060731833857,0.5308694723349712,0.49882405146655584,0.5010982915656649,0.4194755231829832,0.6197877318060833,0.5938152431606686
0.631,0.6267499999999999,0.67,0.6125,0.6942499999999999,0.5855,0.8690000000000001,0.8065000000000001,0.78675,0.72625,0.76225,0.68825,0.4980315561387982,0.5030274361400189,0.5308847315897092,0.49951187040923534,0.5011315731170878,0.4194755231829832,0.6197877318060833,0.5938152431606686
0.63025,0.62625,0.67,0.61225,0.6940000000000001,0.5852499999999999,0.8682500000000001,0.8059999999999999,0.7865000000000001,0.726,0.7617499999999999,0.68875,0.4980773339030122,0.5030152287362285,0.5308633686330759,0.5001885955086702,0.5011981362199335,0.3977826988227952,0.6103085254876679,0.5869453474655861
0.6295000000000001,0.62575,0.67,0.612,0.69375,0.585,0.8675,0.8055,0.78625,0.72575,0.76125,0.6892499999999999,0.498055970946379,0.5030030213324381,0.5308664204840235,0.5007765697970811,0.501375637885359,0.3940762442845031,0.6055617448176629,0.5723126923805517
0.62925,0.6255,0.67,0.61175,0.69375,0.585,0.8675,0.8057500000000001,0.78625,0.7254999999999999,0.76125,0.6895,0.49810480056154055,0.5030182805871761,0.5308633686330759,0.5008209452134376,0.5020967383794614,0.3940762442845031,0.6055617448176629,0.5723126923805517
0.629,0.62525,0.67,0.6114999999999999,0.69375,0.585,0.8675,0.8059999999999999,0.78625,0.7252500000000001,0.76125,0.68975,0.498055970946379,0.5029786065248574,0.5308328501235999,0.5006323496830785,0.5026736187812499,0.3940762442845031,0.6055617448176629,0.5723126923805517
0.62875,0.625,0.67,0.61125,0.69375,0.585,0.8675,0.80625,0.78625,0.725,0.76125,0.69,0.49818109683523054,0.5030365916928617,0.5308633686330759,0.500277346341383,0.5034501885457978,0.3940762442845031,0.6055617448176629,0.5723126923805517
0.6285000000000001,0.625,0.669,0.61075,0.6927500000000001,0.58375,0.8675,0.8065000000000001,0.7857500000000001,0.725,0.76225,0.695,0.49819635608996854,0.5030701620532854,0.5312021240882595,0.49873530060130983,0.5060017749646011,0.3940762442845031,0.6055617448176629,0.5723126923805517
0.62825,0.625,0.6679999999999999,0.61025,0.69175,0.5825,0.8675,0.80675,0.78525,0.725,0.76325,0.7,0.4982177190466018,0.5031311990722374,0.5315836054567095,0.496749500675984,0.5092855559051065,0.40566109470504846,0.6058831445467168,0.581091240355166
0.628,0.625,0.667,0.60975,0.69075,0.58125,0.8675,0.807,0.78475,0.725,0.76425,0.705,0.4981566820276498,0.5031952879421369,0.531968138676107,0.4942977589982048,0.5130574663387767,0.40566109470504846,0.6058831445467168,0.581091240355166
0.62775,0.625,0.6659999999999999,0.60925,0.68975,0.58,0.8675,0.8072499999999999,0.78425,0.725,0.7652500000000001,0.71,0.49811395611438336,0.5032135990478225,0.5323618274483475,0.4918903927367819,0.5168404706156916,0.49611269376429673,0.6330505536389109,0.6283953941009355
0.6275,0.625,0.665,0.60875,0.68875,0.57875,0.8675,0.8075,0.78375,0.725,0.76625,0.715,0.497888119144261,0.5030976287118137,0.5327066866054262,0.4893720879344681,0.5208897272172341,0.5080750818492227,0.6197860632551422,0.6391859650553258
0.6275,0.625,0.665,0.60875,0.68875,0.57875,0.8675,0.8075,0.78375,0.725,0.76625,0.715,0.4976775414288766,0.5030487990966521,0.532731101413007,0.4878300422486171,0.5234302198361703,0.5070114002159892,0.5970390255342894,0.6212178676207466
0.6275,0.625,0.665,0.60875,0.68875,0.57875,0.8675,0.8075,0.78375,0.725,0.76625,0.715,0.4975615710928678,0.5030243842890714,0.5327860347300638,0.48665409382361713,0.5256711780802127,0.3974079328496669,0.5722937492235461,0.465972851042649
0.6275,0.62475,0.66425,0.6085,0.6872499999999999,0.578,0.87,0.8077500000000001,0.7915000000000001,0.73125,0.7702500000000001,0.7275,0.49752800073244424,0.5042146061586352,0.5351969969786675,0.4886842690460107,0.5481251400578732,0.33544009785930257,0.5937225886162509,0.41205380518389517
0.6275,0.6245,0.6635,0.6082500000000001,0.6857500000000001,0.57725,0.8725,0.8079999999999999,0.79925,0.7375,0.77425,0.74,0.49832148197882015,0.5041718802453689,0.5417340617084262,0.4912247615565027,0.5810849805240436,0.33544009785930257,0.5937225886162509,0.41205380518389517
0.62975,0.6255,0.66525,0.6095,0.6875,0.5802499999999999,0.8809999999999999,0.8140000000000001,0.81175,0.75325,0.7845,0.76225,0.500274666585284,0.5062227240821559,0.5407666249580371,0.49222320831607713,0.6153649896376607,0.33544009785930257,0.5937225886162509,0.41205380518389517
0.63325,0.6295000000000001,0.66875,0.612,0.6920000000000001,0.5845,0.8915000000000001,0.8220000000000001,0.8255,0.77225,0.79475,0.78625,0.5022675252540666,0.5082552568132572,0.5398449659718619,0.49343243835756645,0.649212338257448,0.33544009785930257,0.5937225886162509,0.41205380518389517
0.6367499999999999,0.6335000000000001,0.6722499999999999,0.6145,0.6965,0.58875,0.902,0.83,0.8392499999999999,0.79125,0.805,0.81025,0.49855342265083774,0.5086581011383404,0.5332895901364177,0.5052473926045875,0.669380964188937,0.2720191563011622,0.6337657862250811,0.33669680967638727
0.6402500000000001,0.63775,0.6765000000000001,0.61725,0.7025,0.59375,0.91,0.8377500000000001,0.8452500000000001,0.804,0.81125,0.82175,0.49816888943144016,0.5074312570574053,0.5254615924558245,0.5186709565512369,0.6492345240353191,0.13651329486130243,0.6421735556656833,0.0017273325107976163
0.64375,0.642,0.6807500000000001,0.62,0.7084999999999999,0.59875,0.9179999999999999,0.8454999999999999,0.85125,0.81675,0.8175,0.83325,0.4975859859004486,0.5065981017487106,0.5148503067110203,0.5315176389357446,0.60474816942,0.13500313957658286,0.6431197063018199,0.0036079741743958367
0.645,0.645,0.6825,0.62125,0.71125,0.6,0.92,0.8475,0.8525,0.82,0.8175,0.835,0.49334696493423263,0.5027161473433638,0.5122440260017701,0.543654315070638,0.5500554686089357,0.13500313957658286,0.6431197063018199,0.0036079741743958367
0.6452500000000001,0.6452500000000001,0.68375,0.6214999999999999,0.71175,0.60025,0.9207500000000001,0.8490000000000001,0.8532500000000001,0.82175,0.818,0.8355,0.4862697225867489,0.4988341929380169,0.5066316721091342,0.5431772793773402,0.5070445966199996,0.13500313957658286,0.6431197063018199,0.0036079741743958367
0.6455,0.6455,0.685,0.62175,0.7122499999999999,0.6004999999999999,0.9215000000000001,0.8504999999999999,0.8540000000000001,0.8234999999999999,0.8184999999999999,0.836,0.4858394116031373,0.4967406231879635,0.5072481460005493,0.5339471930788563,0.48577767925297877,0.13538542937270975,0.6428039898296101,0.0017255465957287518
0.64575,0.64575,0.68625,0.622,0.7127500000000001,0.60075,0.9222499999999999,0.852,0.8547499999999999,0.82525,0.8190000000000001,0.8365,0.4826197088534196,0.49518417920468766,0.5071230201116977,0.5200244056656644,0.48524517408319146,0.13538542937270975,0.6428039898296101,0.0017255465957287518
0.6465000000000001,0.64625,0.6877500000000001,0.6225,0.71375,0.6015,0.92375,0.8545,0.8552500000000001,0.8277500000000001,0.82,0.8375,0.48003173924985504,0.49515060884426404,0.506289864803003,0.5015975145984306,0.49638340345851056,0.13538542937270975,0.6428039898296101,0.0017255465957287518
0.64725,0.6467499999999999,0.6892499999999999,0.623,0.71475,0.6022500000000001,0.92525,0.857,0.85575,0.83025,0.821,0.8384999999999999,0.48132877590258494,0.4970671712393567,0.5055909909360027,0.48659862430374995,0.510816508007979,0.1361214915472879,0.6424906038452172,0.0029752614086509207
0.648,0.6475,0.69,0.62375,0.71575,0.6032500000000001,0.92625,0.85775,0.8552500000000001,0.831,0.82175,0.83975,0.48637958922086244,0.49761955626087223,0.507791375469222,0.4791546481123669,0.5178500113920215,0.13575346277359754,0.6421745544461763,0.0037612704859929496
0.64875,0.64825,0.69075,0.6245,0.71675,0.60425,0.9272499999999999,0.8584999999999999,0.8547499999999999,0.83175,0.8225,0.841,0.4902645954771569,0.49813531907101655,0.510788293099765,0.464521855121915,0.5223430225041492,0.13575346277359754,0.6421745544461763,0.0037612704859929496
0.6495000000000001,0.649,0.6915,0.62525,0.7177500000000001,0.60525,0.92825,0.85925,0.85425,0.8325,0.82325,0.8422499999999999,0.48958098086489454,0.49417401654103216,0.5503494369335001,0.4500665632329788,0.525693366460745,0.13575108439412564,0.6437521419435188,0.002978518135410903
0.6497499999999999,0.6495000000000001,0.6920000000000001,0.62575,0.71825,0.60575,0.9285,0.8590000000000001,0.8540000000000001,0.8325,0.8234999999999999,0.843,0.4870571001312296,0.498162785729545,0.5759941404461806,0.4544375418091491,0.48155092124627685,0.13575108439412564,0.6437521419435188,0.002978518135410903
0.65,0.64875,0.6915,0.6267499999999999,0.71825,0.60775,0.9279999999999999,0.8584999999999999,0.85375,0.8325,0.8242499999999999,0.84425,0.4879757072664571,0.5003845332193976,0.5802880947294534,0.4579431995711703,0.43152873217170157,0.13575108439412564,0.6437521419435188,0.002978518135410903
0.65,0.6475,0.6905,0.62725,0.7177500000000001,0.60925,0.9272499999999999,0.8582500000000001,0.85375,0.8325,0.82475,0.8447499999999999,0.4871944334238716,0.5025971251564073,0.5859645374919888,0.4666962505667555,0.39841357807361655,0.13575108439412564,0.6437521419435188,0.002978518135410903
0.65,0.64625,0.6895,0.62775,0.7172499999999999,0.61075,0.9265000000000001,0.858,0.85375,0.8325,0.82525,0.8452500000000001,0.4867397076326792,0.5047273171178319,0.5885769219031343,0.4808187262907978,0.3603172820255306,0.1346279756644768,0.6437534775676289,0.0025087898753977595
0.65,0.645,0.6884999999999999,0.62825,0.71675,0.61225,0.9257500000000001,0.85775,0.85375,0.8325,0.82575,0.84575,0.4900357066560869,0.5096713156529435,0.5584490493484299,0.49580652321938834,0.32183270155063637,0.1346279756644768,0.6437534775676289,0.0025087898753977595
0.65,0.64375,0.6875,0.62875,0.71625,0.61375,0.925,0.8575,0.85375,0.8325,0.82625,0.84625,0.49528183843501083,0.5054078798791467,0.5418317209387493,0.49967827824226063,0.33470157151318913,0.1879195517493196,0.5986554518840553,0.1077743934215281
0.65,0.64375,0.6875,0.62875,0.71625,0.61375,0.925,0.8575,0.85375,0.8325,0.82625,0.84625,0.49525131992553484,0.5028870509964294,0.5433271279030732,0.5020301752657713,0.3665187462119134,0.2821722916875864,0.5946177544458128,0.2870550560899767
0.6495000000000001,0.64225,0.68625,0.626,0.71475,0.6095,0.9257500000000001,0.85675,0.8534999999999999,0.8315,0.826,0.8452500000000001,0.49538254951628163,0.5025330362865078,0.5416394543290506,0.5040825382614096,0.37649212022467893,0.35315549437331173,0.564745506774446,0.5090967930021834
0.649,0.64075,0.685,0.6232500000000001,0.71325,0.60525,0.9265000000000001,0.856,0.8532500000000001,0.8305,0.82575,0.84425,0.49616382335886716,0.5015900143436994,0.542985320596942,0.5049589527019148,0.3858886154297858,0.35315549437331173,0.564745506774446,0.5090967930021834
0.6485,0.63925,0.68375,0.6204999999999999,0.71175,0.601,0.9272499999999999,0.8552500000000001,0.853,0.8295,0.8255,0.84325,0.49721060823389385,0.5020722067934202,0.5395580919827876,0.5095518082731116,0.409174615911063,0.35315549437331173,0.564745506774446,0.5090967930021834
0.6445000000000001,0.635,0.679,0.616,0.70675,0.594,0.9205,0.847,0.8445,0.815,0.81875,0.8325,0.4968474379711295,0.5032471694082461,0.5354197820978424,0.5108054138610905,0.43270468077021224,0.35315549437331173,0.564745506774446,0.5090967930021834
0.64,0.63,0.6735,0.61175,0.70075,0.58675,0.9095,0.8365,0.8322499999999999,0.7957500000000001,0.8077500000000001,0.81125,0.49693288979766226,0.5034363841669973,0.5335581530198065,0.5100399379397873,0.4505435978852122,0.3802499331636038,0.6175140608905313,0.6093190583311184
0.636,0.6265,0.66925,0.61025,0.69625,0.58375,0.89775,0.82675,0.82025,0.7775,0.797,0.7909999999999999,0.4976928006836146,0.5027985473189489,0.5335795159764397,0.5098291547446278,0.46865986203563803,0.3802499331636038,0.6175140608905313,0.6093190583311184
0.632,0.623,0.665,0.60875,0.69175,0.58075,0.8859999999999999,0.8170000000000001,0.80825,0.75925,0.78625,0.77075,0.4977477340006714,0.5027161473433638,0.5320322275460067,0.5114044820035905,0.4867428443960638,0.3802499331636038,0.6175140608905313,0.6093190583311184
0.628,0.6195,0.6607500000000001,0.6072500000000001,0.6872499999999999,0.57775,0.87425,0.8072499999999999,0.79625,0.741,0.7755,0.7505,0.4978331858272042,0.5028321176793725,0.5312143314920499,0.5081317950364628,0.49113601048521266,0.44440455851685035,0.5705643823423536,0.6705615502041503
0.6275,0.61975,0.6605,0.6082500000000001,0.6875,0.5785,0.8690000000000001,0.804,0.7915000000000001,0.73375,0.77075,0.73425,0.4979461043122654,0.5028778954435865,0.5309762871181372,0.5046927002471543,0.494042600365,0.44440455851685035,0.5705643823423536,0.6705615502041503
0.6275,0.62075,0.6609999999999999,0.609,0.68875,0.5795,0.868,0.8029999999999999,0.7905,0.73125,0.7702500000000001,0.7284999999999999,0.4980925931577502,0.5029480880153814,0.5309732352671895,0.5046594186740425,0.49465276239412237,0.44440455851685035,0.5705643823423536,0.6705615502041503
0.6275,0.62175,0.6615000000000001,0.60975,0.69,0.5805,0.867,0.802,0.7895,0.72875,0.7697499999999999,0.72275,0.49813837092196417,0.5030152287362285,0.5308694723349712,0.5042045706238564,0.49562902155396277,0.41341351051044994,0.5759129106338138,0.637411249491465
0.6275,0.62275,0.662,0.6104999999999999,0.69125,0.5815,0.866,0.8009999999999999,0.7885,0.72625,0.76925,0.7170000000000001,0.49815973387859735,0.5030732139042329,0.5309305093539232,0.50327268692375,0.4960394941010372,0.41341351051044994,0.5759129106338138,0.637411249491465
0.62775,0.62375,0.6627500000000001,0.61125,0.6925,0.58275,0.8647499999999999,0.80025,0.7865000000000001,0.7234999999999999,0.76775,0.7084999999999999,0.49803765984069337,0.5030487990966521,0.5309060945463424,0.5026847126678723,0.4964721544213564,0.38019763657840655,0.6125038920125738,0.58013291714387
0.628,0.62375,0.6629999999999999,0.61125,0.6925,0.583,0.8645,0.8005,0.7855,0.7232500000000001,0.7667499999999999,0.70575,0.497949156163213,0.5029969176305429,0.5308603167821284,0.5023962724832447,0.49636121590215426,0.38019763657840655,0.6125038920125738,0.58013291714387
