C0,C1,C2,C3,C4,C5,C6,C7,C8,C9,C10,C11,Ax,Ay,Az,Gr,Gp,Fx_norm,Fy_norm,Fz_norm
0.62125,0.59,0.6775,0.545,0.71125,0.48125,0.87,0.7825,0.7975,0.73625,0.74375,0.7,0.4943842856682458,0.49946823938895873,0.5491234006896774,0.49980439535641036,0.49922908756989937,0.19250238026667496,0.33335742313416106,0.23147714009993695
0.62125,0.59,0.6775,0.545,0.71125,0.48125,0.87,0.7825,0.7975,0.73625,0.74375,0.7,0.4945011118630958,0.4995105385284734,0.5491032582422894,0.4998532965173078,0.4992147048783296,0.19250238026667496,0.33335742313416106,0.23147714009993695
0.62125,0.59,0.6777500000000001,0.545,0.711,0.4815,0.8704999999999999,0.7829999999999999,0.7977500000000001,0.736,0.74375,0.6995,0.49445035289567824,0.499482741951078,0.5490815043991105,0.49985502244063357,0.4992198826499941,0.19250238026667496,0.33335742313416106,0.23147714009993695
0.62125,0.59,0.6779999999999999,0.545,0.71075,0.48174999999999996,0.871,0.7835,0.7979999999999999,0.73575,0.74375,0.6990000000000001,0.49448419220728995,0.4994730735763318,0.5490331625253795,0.4998481187473304,0.49922678635004575,0.19250238026667496,0.33335742313416106,0.23147714009993695
0.62125,0.59,0.67825,0.54525,0.71075,0.48200000000000004,0.87175,0.78425,0.7977500000000001,0.7354999999999999,0.74425,0.69825,0.4944890263946631,0.49941506332785457,0.5489993232137678,0.49987573352054304,0.49919226787678145,0.19250238026667496,0.33335742313416106,0.23147714009993695
0.62125,0.59,0.6785,0.5455,0.71075,0.48225,0.8725,0.785,0.7975,0.7352500000000001,0.7447499999999999,0.6975,0.4945615392052596,0.499482741951078,0.548960649714783,0.4999033482937557,0.49919226787678145,0.19250238026667496,0.33335742313416106,0.23147714009993695
0.62125,0.59,0.67875,0.5457500000000001,0.71075,0.4825,0.8732500000000001,0.7857500000000001,0.7972499999999999,0.735,0.7452500000000001,0.69675,0.494532534081021,0.4994537368268394,0.5489316445905443,0.4999033482937557,0.49922678633654877,0.19250238026667496,0.33335742313416106,0.23147714009993695
0.62125,0.59,0.67875,0.546,0.711,0.4825,0.8734999999999999,0.7859999999999999,0.79675,0.735,0.74575,0.6965,0.4945615392052596,0.4994537368268394,0.5489461471526637,0.4999378667602715,0.4992474974097098,0.19250238026667496,0.33335742313416106,0.23147714009993695
0.62125,0.5902499999999999,0.67875,0.5465,0.7115,0.483,0.8734999999999999,0.78625,0.7959999999999999,0.7345,0.7465,0.6955,0.4945712075800058,0.4994440684520932,0.5489558155274098,0.5,0.49922678633654877,0.19250238026667496,0.33335742313416106,0.23147714009993695
0.62125,0.5905,0.67875,0.54675,0.71175,0.48350000000000004,0.8732500000000001,0.78625,0.7957500000000001,0.7340000000000001,0.74675,0.69475,0.4945422024557672,0.4994198975152277,0.549008991588514,0.5000552295464253,0.4992751121829225,0.19250238026667496,0.33335742313416106,0.23147714009993695
0.62125,0.59075,0.67875,0.547,0.7120000000000001,0.484,0.873,0.78625,0.7955,0.7334999999999999,0.747,0.6940000000000001,0.49448419220728995,0.4993763898288698,0.5490428309001257,0.5001380738660632,0.49929582326958044,0.19250238026667496,0.33335742313416106,0.23147714009993695
0.62125,0.591,0.67875,0.54725,0.7122499999999999,0.48450000000000004,0.87275,0.78625,0.79525,0.733,0.74725,0.69325,0.49448419220728995,0.49934255051725807,0.5490524992748719,0.5001794960258822,0.49932343804954155,0.19250238026667496,0.33335742313416106,0.23147714009993695
0.62125,0.59125,0.67875,0.5475,0.7125,0.485,0.8725,0.78625,0.795,0.7325,0.7475,0.6925,0.4945470366431403,0.49933288214251187,0.5490283283380064,0.5002140144923981,0.49935105282950265,0.19249433029473123,0.33364971304054347,0.23137515658499794
0.62125,0.59125,0.67875,0.5475,0.7125,0.485,0.8725,0.78625,0.795,0.7325,0.7475,0.6925,0.4945760417673789,0.49934255051725807,0.5490476650874988,0.5002140144923981,0.4994131860624827,0.19249433029473123,0.33364971304054347,0.23137515658499794
0.62125,0.59125,0.67875,0.5475,0.7125,0.485,0.8725,0.78625,0.795,0.7325,0.7475,0.6925,0.4946388862032292,0.4994005607657353,0.5490234941506332,0.5002071107990949,0.4994338971491406,0.19249433029473123,0.33364971304054347,0.23137515658499794
0.62125,0.59125,0.67875,0.5475,0.7125,0.485,0.8725,0.78625,0.795,0.7325,0.7475,0.6925,0.49468722807696025,0.4994537368268394,0.5489944890263947,0.5001380738660632,0.49946841561565647,0.19376349865172215,0.33365095035608777,0.23226407490787782
0.6214999999999999,0.59125,0.679,0.54775,0.7125,0.48524999999999996,0.8734999999999999,0.78675,0.79475,0.7325,0.74725,0.6922499999999999,0.49465822295272166,0.49950207870057045,0.5489703180895291,0.500082844319638,0.49948912669556594,0.19477367922365846,0.3330659054144252,0.23295679979479714
0.62175,0.59125,0.67925,0.5479999999999999,0.7125,0.4855,0.8745,0.7872499999999999,0.7945,0.7325,0.747,0.6920000000000001,0.4946195494537368,0.49948757613845113,0.5489751522769023,0.500082844319638,0.49952364516208175,0.1957854710438732,0.3336515681054051,0.23305265935926475
0.622,0.59125,0.6795,0.54825,0.7125,0.48575,0.8755,0.7877500000000001,0.79425,0.7325,0.74675,0.69175,0.4946098810789906,0.4994730735763318,0.5489799864642754,0.5000966517062443,0.4995443562419912,0.19604284758064944,0.3342370781759653,0.2326613470943975
0.62225,0.59125,0.67975,0.5485,0.7125,0.486,0.8765000000000001,0.78825,0.794,0.7325,0.7465,0.6915,0.4945857101421251,0.4994102291404815,0.548960649714783,0.5000759406263348,0.49955816362859756,0.1970594700109753,0.33453014026899436,0.233154347871803
0.6225,0.59125,0.68,0.54875,0.7125,0.48625,0.8775,0.78875,0.79375,0.7325,0.74625,0.69125,0.4946098810789906,0.49934738470463114,0.548965483902156,0.5001035553995474,0.4995650673219007,0.1970594700109753,0.33453014026899436,0.233154347871803
0.6225,0.59125,0.68,0.54875,0.7125,0.48625,0.8775,0.78875,0.79375,0.7325,0.74625,0.69125,0.49466789132746786,0.49934255051725807,0.5490331625253795,0.5001311701727601,0.49959958578841657,0.1973071853275293,0.3352614864180872,0.23305389674777022
0.6225,0.59125,0.68,0.54875,0.7125,0.48625,0.8775,0.78875,0.79375,0.7325,0.74625,0.69125,0.49465822295272166,0.4994440684520932,0.5490283283380064,0.500124266479457,0.4995650673219007,0.1973071853275293,0.3352614864180872,0.23305389674777022
0.6225,0.59125,0.68,0.54875,0.7125,0.48625,0.8775,0.78875,0.79375,0.7325,0.74625,0.69125,0.49462438364110994,0.4994537368268394,0.5490428309001257,0.5001035553995474,0.4995443562419912,0.19781388529441377,0.33496950538636344,0.23463663888828848
0.6225,0.59125,0.68,0.54875,0.7122499999999999,0.486,0.87775,0.78825,0.79425,0.7325,0.746,0.691,0.49464855457797546,0.4995600889490477,0.5490670018369912,0.5001035553995474,0.49952364516883024,0.19831414653763296,0.33423754148795326,0.23364409239649328
0.6225,0.59125,0.68,0.54875,0.7120000000000001,0.48575,0.878,0.7877500000000001,0.79475,0.7325,0.74575,0.69075,0.4947017306390796,0.4996326017596442,0.5490283283380064,0.5001173627861538,0.4994960303956176,0.19831414653763296,0.33423754148795326,0.23364409239649328
0.6225,0.59125,0.68,0.54875,0.71175,0.4855,0.87825,0.7872499999999999,0.79525,0.7325,0.7454999999999999,0.6905,0.49466789132746786,0.4996422701343904,0.5489799864642754,0.5001173627861538,0.4994269934693344,0.20008518425139726,0.3333597415110106,0.23651271195718243
0.6225,0.59125,0.68,0.54875,0.7115,0.48524999999999996,0.8785,0.78675,0.7957500000000001,0.7325,0.7452500000000001,0.69025,0.4947452383254375,0.49956492313642076,0.5490234941506332,0.5001104590928506,0.4994338971626376,0.1998310270764537,0.33321436874446597,0.23720707463755705
0.6225,0.59125,0.68,0.54875,0.71125,0.485,0.87875,0.78625,0.79625,0.7325,0.745,0.69,0.49480808276128785,0.49953591801218217,0.5490234941506332,0.5001104590928506,0.4994477045492439,0.1998310270764537,0.33321436874446597,0.23720707463755705
0.6225,0.59125,0.68,0.54875,0.71125,0.485,0.87875,0.78625,0.79625,0.7325,0.745,0.69,0.4947452383254375,0.4994489026394663,0.5490428309001257,0.5000966517062443,0.49951674147552705,0.20033289643322702,0.33321467761912466,0.23888339864958832
0.62225,0.591,0.67975,0.5485,0.711,0.48424999999999996,0.87875,0.7855,0.7959999999999999,0.7325,0.745,0.6895,0.49464855457797546,0.4994392342647201,0.549105675335976,0.5000759406263348,0.49958577840855867,0.2015956260665527,0.33336159657587217,0.24115425291221418
0.622,0.59075,0.6795,0.54825,0.71075,0.48350000000000004,0.87875,0.78475,0.7957500000000001,0.7325,0.745,0.6890000000000001,0.49463405201585614,0.4994198975152277,0.5491588513970802,0.5000552295464253,0.4996755264147513,0.20285352195504303,0.33248456878557614,0.24312822062556227
0.62175,0.5905,0.67925,0.5479999999999999,0.7105,0.48275,0.87875,0.784,0.7955,0.7325,0.745,0.6884999999999999,0.49448419220728995,0.49942473170260077,0.549149183022334,0.49999309630669686,0.4997583707343893,0.20412269031203398,0.331020333931007,0.2440276804507202
0.6214999999999999,0.5902499999999999,0.679,0.54775,0.71025,0.48200000000000004,0.87875,0.78325,0.79525,0.7325,0.745,0.688,0.4943778400850817,0.49942473170260077,0.549149183022334,0.499958577840181,0.49978598550760195,0.20412269031203398,0.331020333931007,0.2440276804507202
0.62125,0.59,0.67875,0.5475,0.71,0.48125,0.87875,0.7825,0.795,0.7325,0.745,0.6875,0.4944261819588127,0.4994634052015856,0.5491395146475877,0.4999102519870589,0.4997721781209956,0.20437040249386373,0.3316063054966455,0.24333905316585788
0.62125,0.59,0.67875,0.5475,0.71,0.48125,0.87875,0.7825,0.795,0.7325,0.745,0.6875,0.49447452383254376,0.49947790776370493,0.5491346804602146,0.49987573352054304,0.4997790818142988,0.20336022192192746,0.3324841054735882,0.2431404042870817
0.62125,0.58975,0.67875,0.54725,0.71,0.48075,0.87775,0.782,0.7955,0.732,0.7445,0.6884999999999999,0.4944986947694093,0.49949241032582425,0.5491878565213187,0.49989644460045257,0.4998274076674209,0.20437845560053178,0.3316055333099989,0.24264994689189662
0.62125,0.5895,0.67875,0.547,0.71,0.48025,0.8767499999999999,0.7815000000000001,0.7959999999999999,0.7315,0.7440000000000001,0.6895,0.4945857101421251,0.499482741951078,0.549197524896065,0.49998619261339367,0.4998688298272399,0.20159079232171734,0.3317512149512021,0.2418660737473496
0.62125,0.5892499999999999,0.67875,0.54675,0.71,0.47975,0.87575,0.7809999999999999,0.7965000000000001,0.731,0.7434999999999999,0.6905,0.4946098810789906,0.499482741951078,0.549154017209707,0.5000345184665158,0.5,0.2015972341801069,0.3324820959713973,0.241767854163676
0.62125,0.589,0.67875,0.5465,0.71,0.47924999999999995,0.8747499999999999,0.7805,0.797,0.7304999999999999,0.743,0.6915,0.4945663733926327,0.4994537368268394,0.549154017209707,0.5001311701727601,0.5001518812526696,0.20058383424633797,0.3324827137207145,0.2401921858439385
0.62125,0.58875,0.67875,0.54625,0.71,0.47875,0.87375,0.78,0.7975,0.73,0.7425,0.6925,0.4945518708305134,0.4994198975152277,0.5491298462728416,0.5002140144923981,0.5002761477321265,0.1988111852842952,0.3332135965578194,0.24009253054033564
0.62125,0.58875,0.67875,0.54625,0.71,0.47875,0.87375,0.78,0.7975,0.73,0.7425,0.6925,0.494532534081021,0.4993957265783622,0.5490138257758871,0.5002692440388233,0.5003520883584613,0.2000787423930077,0.3345304509605628,0.239114298213656
0.62125,0.58875,0.67875,0.54625,0.71,0.47875,0.87375,0.78,0.7975,0.73,0.7425,0.6925,0.49451319733152854,0.4994198975152277,0.5490234941506332,0.5002623403455202,0.5004073179048866,0.19779939346408046,0.33453029470632367,0.23901177521229697
0.62125,0.58875,0.67875,0.54625,0.71,0.47875,0.87375,0.78,0.7975,0.73,0.7425,0.6925,0.49453736826839406,0.4994634052015856,0.549057333462245,0.5002692440388233,0.5004625474445634,0.19779939346408046,0.33453029470632367,0.23901177521229697
0.62125,0.58875,0.67875,0.5455,0.71,0.47725,0.8732500000000001,0.78,0.7972499999999999,0.73075,0.743,0.695,0.4945470366431403,0.49948757613845113,0.549008991588514,0.5002623403455202,0.5004970659110792,0.196280898542257,0.33643235030496865,0.23783321941604618
0.62125,0.58875,0.67875,0.5447500000000001,0.71,0.47575,0.87275,0.78,0.797,0.7315,0.7434999999999999,0.6975,0.4944986947694093,0.4994730735763318,0.5490186599632602,0.5002209181857012,0.5005522954642531,0.196280898542257,0.33643235030496865,0.23783321941604618
0.62125,0.58875,0.67875,0.544,0.71,0.47424999999999995,0.87225,0.78,0.79675,0.73225,0.7440000000000001,0.7,0.49443101614618584,0.4994634052015856,0.5489993232137678,0.5001933034124886,0.5005661028508593,0.1955216526487074,0.3362862035348677,0.2373402186386407
0.62125,0.58875,0.67875,0.54325,0.71,0.47275,0.87175,0.78,0.7965000000000001,0.733,0.7445,0.7025,0.4944455187083051,0.4994537368268394,0.5489268104031713,0.5001587849459728,0.5006420434839426,0.1932503536917239,0.33862499518246375,0.2323248553813723
0.62125,0.58875,0.67875,0.5425,0.71,0.47125,0.87125,0.78,0.79625,0.73375,0.745,0.705,0.49442134777143965,0.4994392342647201,0.5489848206516484,0.5001311701727601,0.5006903693438133,0.19148253847451646,0.3381856300650947,0.23094530752659986
0.62125,0.58875,0.67875,0.5425,0.71,0.47125,0.87125,0.78,0.79625,0.73375,0.745,0.705,0.49438750845982793,0.49945857101421254,0.5490428309001257,0.5000897480129411,0.5007525025902901,0.19174957623151492,0.3411108565903172,0.2274183455152465
0.62125,0.58875,0.67875,0.5425,0.71,0.47125,0.87125,0.78,0.79625,0.73375,0.745,0.705,0.49446485545779756,0.4995600889490477,0.5490863385864836,0.5000966517062443,0.5008491542830376,0.1904820191228024,0.3419883476926013,0.2257428254315336
0.62125,0.58875,0.67875,0.5425,0.71,0.47125,0.87125,0.78,0.79625,0.73375,0.745,0.705,0.49451803151890167,0.49956492313642076,0.5492216958329305,0.5001035553995474,0.5011045909285061,0.18822199263431957,0.3463756469497824,0.2188709328585002
0.62125,0.5885,0.6785,0.542,0.71,0.47100000000000003,0.8725,0.7797499999999999,0.7977500000000001,0.73675,0.7454999999999999,0.711,0.49452769989364787,0.49956492313642076,0.549342550517258,0.5001380738660632,0.501311701714104,0.18822199263431957,0.3463756469497824,0.2188709328585002
0.62125,0.58825,0.67825,0.5415,0.71,0.47075,0.87375,0.7795000000000001,0.79925,0.7397499999999999,0.746,0.7170000000000001,0.49446968964517063,0.4994972445131973,0.5493763898288697,0.5002002071057917,0.5018985156651183,0.18873030384948247,0.3454970747861931,0.2183830462876193
0.62125,0.588,0.6779999999999999,0.541,0.71,0.4705,0.875,0.77925,0.8007500000000001,0.74275,0.7465,0.723,0.4944793580199168,0.49952624963743597,0.5494972445131974,0.5003037625053391,0.5025474628221187,0.19100643341657708,0.3427141286471093,0.21830775394126925
0.6214999999999999,0.5875,0.6777500000000001,0.5415,0.71025,0.4685,0.87725,0.7827500000000001,0.80475,0.75075,0.74925,0.73575,0.49429082471236585,0.49947790776370493,0.5494295658899739,0.5007248877968321,0.5038453571361194,0.19100643341657708,0.3427141286471093,0.21830775394126925
0.62175,0.5870000000000001,0.6775,0.542,0.7105,0.46649999999999997,0.8795000000000001,0.78625,0.80875,0.75875,0.752,0.7484999999999999,0.4941796384027845,0.4995069128879435,0.5494392342647201,0.5010976872284545,0.5050880219306888,0.1927855211022852,0.3435920830613813,0.21861250576597166
0.622,0.58675,0.6775,0.5429999999999999,0.71075,0.46475,0.8805,0.79,0.81125,0.76375,0.75425,0.7552500000000001,0.4939766025331142,0.4996132650101518,0.5491105095233492,0.5014428718868641,0.5063306867252582,0.1927855211022852,0.3435920830613813,0.21861250576597166
0.62225,0.5865,0.6775,0.544,0.711,0.46299999999999997,0.8815000000000001,0.79375,0.81375,0.76875,0.7565000000000001,0.762,0.49396693415836795,0.49987914531567246,0.5488397950304553,0.5017604417653126,0.5071039003212247,0.19455655881604952,0.3402233197939883,0.21607293487676316
0.6225,0.58625,0.6775,0.545,0.71125,0.46125,0.8825,0.7975,0.81625,0.77375,0.75875,0.76875,0.49374456153920526,0.4999468239388959,0.5485835830996809,0.5016499826724621,0.5076838105316964,0.19455655881604952,0.3402233197939883,0.21607293487676316
0.6225,0.58625,0.6775,0.545,0.71125,0.46125,0.8825,0.7975,0.81625,0.77375,0.75875,0.76875,0.49349801798317705,0.49987431112829933,0.5483902156047569,0.501035553975229,0.5073800481073389,0.1943120659960524,0.3389052298926104,0.21677350321017688
0.6225,0.58625,0.6775,0.545,0.71125,0.46125,0.8825,0.7975,0.81625,0.77375,0.75875,0.76875,0.49316929324180603,0.4998163008798221,0.5480373199265204,0.5003727994181254,0.5067725231506484,0.19355765071261388,0.3362667298960952,0.21185879127941626
0.62275,0.5865,0.6779999999999999,0.54525,0.7122499999999999,0.461,0.8847499999999999,0.799,0.8175,0.7767499999999999,0.76075,0.77075,0.49292758387315094,0.49966160688388284,0.5479116310548197,0.4998343113539756,0.5055436657561823,0.18777325998876837,0.3384531918296882,0.1908609632093326
0.623,0.58675,0.6785,0.5455,0.71325,0.46075000000000005,0.887,0.8005,0.81875,0.7797499999999999,0.76275,0.77275,0.4925215121338103,0.499386058203616,0.5478826259305811,0.49948222300901124,0.5041007938895635,0.1895491314473681,0.33845288113811983,0.18839279537478054
0.6232500000000001,0.5870000000000001,0.679,0.5457500000000001,0.7142499999999999,0.46049999999999996,0.88925,0.802,0.82,0.7827500000000001,0.7647499999999999,0.7747499999999999,0.4923426472010055,0.49915401720970703,0.5478681233684618,0.4997307559746736,0.5026095961698227,0.1895491314473681,0.33845288113811983,0.18839279537478054
0.6235,0.58725,0.6795,0.546,0.71525,0.46025,0.8915000000000001,0.8035,0.82125,0.7857500000000001,0.7667499999999999,0.7767499999999999,0.49259402494440685,0.49917818814657255,0.5484627284153534,0.5003727994181254,0.501449775647652,0.19410460994338996,0.33318314515029684,0.1914694851805582
0.62375,0.5875,0.68,0.54625,0.71625,0.46,0.89375,0.805,0.8225,0.78875,0.76875,0.77875,0.49308711205646333,0.49933288214251187,0.5499854974378807,0.5013186054209041,0.5019468415114919,0.19410460994338996,0.33318314515029684,0.1914694851805582
0.62375,0.5875,0.68,0.54625,0.71625,0.46,0.89375,0.805,0.8225,0.78875,0.76875,0.77875,0.4936092042927584,0.49968577782074836,0.5512423861548874,0.5021746633904963,0.5043286155863592,0.19485580273027153,0.3298167002597534,0.1930494712627067
0.62375,0.5875,0.68,0.54625,0.71625,0.46,0.89375,0.805,0.8225,0.78875,0.76875,0.77875,0.4941457990911728,0.5002900512423861,0.5528328338006381,0.5026095960820925,0.5081463581112293,0.19991637307962365,0.32484064774809623,0.1961167490574278
0.624,0.58825,0.68025,0.5465,0.716,0.4595,0.8952500000000001,0.80675,0.823,0.789,0.7697499999999999,0.7797499999999999,0.4943585033355893,0.5008991588513971,0.5540413806439137,0.502437003742765,0.5137452531641435,0.2011823189400577,0.3236693205492268,0.1976031096102027
0.62425,0.589,0.6805,0.54675,0.71575,0.45899999999999996,0.8967499999999999,0.8085,0.8234999999999999,0.78925,0.77075,0.78075,0.4942859905249927,0.501411582712946,0.554761674562506,0.5020365895581754,0.5192060743509944,0.2011823189400577,0.3236693205492268,0.1976031096102027
0.6245,0.58975,0.6807500000000001,0.547,0.7155,0.4585,0.89825,0.81025,0.8240000000000001,0.7895,0.7717499999999999,0.78175,0.49348351542105773,0.5013148989654839,0.5537126559025428,0.5009319986296694,0.523652052703262,0.2011823189400577,0.3236693205492268,0.1976031096102027
0.62475,0.5905,0.6809999999999999,0.54725,0.71525,0.45799999999999996,0.8997499999999999,0.812,0.8245,0.78975,0.77275,0.7827500000000001,0.49258435656966065,0.5009571690998743,0.5529053466112347,0.4998205040146086,0.5268346552822778,0.19864237411252159,0.3448948727656979,0.19393587489281736
0.625,0.59125,0.68125,0.5475,0.715,0.4575,0.90125,0.81375,0.825,0.79,0.77375,0.78375,0.49162718746978634,0.5000918495600889,0.5517789809533018,0.49961339320201675,0.5288367262187226,0.2160937697345587,0.3457777728083277,0.20810139434836852
0.625,0.59125,0.68125,0.5475,0.715,0.4575,0.90125,0.81375,0.825,0.79,0.77375,0.78375,0.49080054142898577,0.4992555351445422,0.5511215314705598,0.5000966517332381,0.5293337925144648,0.21887015741014826,0.3394839374530415,0.2110749805032415
0.625,0.59125,0.68125,0.5475,0.715,0.4575,0.90125,0.81375,0.825,0.79,0.77375,0.78375,0.4900705791356473,0.49853524122594994,0.5507396306680847,0.5013117017950857,0.5301484287156494,0.21887015741014826,0.3394839374530415,0.2110749805032415
0.62575,0.59275,0.68125,0.54925,0.716,0.45875,0.90225,0.8142499999999999,0.826,0.7909999999999999,0.77425,0.78475,0.4900705791356473,0.4988929710915595,0.5512955622159915,0.5031549879407726,0.5322195370575188,0.22518218178960112,0.3216256023137604,0.22077980171225908
0.6265,0.59425,0.68125,0.551,0.7170000000000001,0.46,0.90325,0.81475,0.8270000000000001,0.792,0.7747499999999999,0.7857500000000001,0.4892922749685778,0.4996761094460021,0.5490041574011408,0.5029340697550714,0.5329582323286873,0.22518218178960112,0.3216256023137604,0.22077980171225908
0.62725,0.59575,0.68125,0.55275,0.718,0.46125,0.90425,0.81525,0.828,0.7929999999999999,0.7752500000000001,0.78675,0.48849946823938895,0.5003577298656096,0.5465773953398434,0.5019399379194159,0.5331446322435784,0.22593820832131806,0.3186985225405861,0.222464950848964
0.628,0.5972500000000001,0.68125,0.5545,0.7190000000000001,0.4625,0.9052500000000001,0.81575,0.8290000000000001,0.794,0.77575,0.7877500000000001,0.48757613845112635,0.500473750362564,0.5443778400850817,0.5006420435514274,0.5320400410991213,0.22971833784517856,0.32045551243043535,0.22722107560118088
0.62875,0.59875,0.68125,0.55625,0.72,0.46375,0.90625,0.81625,0.83,0.795,0.77625,0.78875,0.48661896935125204,0.5004205743014599,0.5421009378323504,0.4989575423584617,0.5296375558026266,0.22971833784517856,0.32045551243043535,0.22722107560118088
0.62875,0.59875,0.68125,0.55625,0.72,0.46375,0.90625,0.81625,0.83,0.795,0.77625,0.78875,0.4855699506912888,0.4998356376293145,0.5409213961133134,0.4973213669983727,0.5251639623802137,0.2302202072019519,0.3251403579139251,0.227224170319812
0.629,0.5995,0.6809999999999999,0.5575,0.72125,0.46375,0.9077500000000001,0.8192499999999999,0.831,0.7957500000000001,0.77775,0.7895,0.4854200908827226,0.49931837958039255,0.5436092042927584,0.4978046255160972,0.5219813598011979,0.2302202072019519,0.3251403579139251,0.227224170319812
0.62925,0.60025,0.6807500000000001,0.55875,0.7225,0.46375,0.90925,0.8222499999999999,0.8320000000000001,0.7965000000000001,0.77925,0.79025,0.48565213187663153,0.49916851977182636,0.5463356859711882,0.49810838802143637,0.5201725918723333,0.23808132141217334,0.33582674702940885,0.22624518894898163
0.6295000000000001,0.601,0.6805,0.56,0.72375,0.46375,0.9107500000000001,0.82525,0.833,0.7972499999999999,0.78075,0.7909999999999999,0.486145218988688,0.4995939282606594,0.5486754326597699,0.4984397653269821,0.5195374520614484,0.28767522368130716,0.2822560749413354,0.25210897122745046
0.62975,0.60175,0.68025,0.56125,0.725,0.46375,0.9122499999999999,0.82825,0.8340000000000001,0.7979999999999999,0.7822499999999999,0.79175,0.486285410422508,0.5002707144928937,0.5503045538045055,0.49805315850200493,0.5202209174082773,0.2922145990987172,0.2777196946047962,0.25823974355143187
0.63,0.6025,0.68,0.5625,0.72625,0.46375,0.91375,0.83125,0.835,0.79875,0.78375,0.7925,0.4861017113023301,0.5008073092913081,0.5505559315479068,0.497190196845858,0.521353122867051,0.2922145990987172,0.2777196946047962,0.25823974355143187
0.63,0.6025,0.68,0.5625,0.72625,0.46375,0.91375,0.83125,0.835,0.79875,0.78375,0.7925,0.485864836121048,0.5006719520448613,0.549671275258629,0.49619606503719643,0.5224991360228608,0.3065935824927756,0.2796271573268772,0.273960777610911
0.63,0.6025,0.68,0.5625,0.72625,0.46375,0.91375,0.83125,0.835,0.79875,0.78375,0.7925,0.4852170550130523,0.5003480614908634,0.5481581746108479,0.49536762186781075,0.5224784250171846,0.3065935824927756,0.2796271573268772,0.273960777610911
0.63,0.6025,0.68,0.5625,0.72625,0.46375,0.91375,0.83125,0.835,0.79875,0.78375,0.7925,0.48454993715556416,0.5001256888717006,0.5464613748428889,0.494546082330992,0.5220642036079519,0.31442732115588456,0.282410103465961,0.2814711414475254
0.6295000000000001,0.602,0.68025,0.56175,0.72625,0.46275,0.9155,0.8325,0.83575,0.799,0.78375,0.7929999999999999,0.4840955235424925,0.49985980856618,0.5445035289567823,0.49413186070580833,0.5204832580372333,0.33363043205124165,0.29529794765435025,0.29709340209218527
0.629,0.6015,0.6805,0.561,0.72625,0.46175,0.9172499999999999,0.83375,0.8365,0.79925,0.78375,0.7935,0.4836604466789133,0.49969544619549455,0.542840568500435,0.49393165363375896,0.5180462544699285,0.36219704273058334,0.28359163261311443,0.3174667949008632
0.6285000000000001,0.601,0.6807500000000001,0.56025,0.72625,0.46075000000000005,0.919,0.835,0.8372499999999999,0.7995,0.78375,0.794,0.48344290824712366,0.4994634052015856,0.5418882335879338,0.4937521575673859,0.5149050740102409,0.36219704273058334,0.28359163261311443,0.3174667949008632
0.628,0.6004999999999999,0.6809999999999999,0.5595,0.72625,0.45975,0.9207500000000001,0.83625,0.838,0.79975,0.78375,0.7945,0.4833510586870347,0.49922169583293047,0.5406990234941507,0.49360717998777404,0.5114118052123373,0.36421257639906907,0.2796409131506453,0.3211342030023235
0.6275,0.6,0.68125,0.55875,0.72625,0.45875,0.9225,0.8375,0.83875,0.8,0.78375,0.795,0.4832882142511844,0.4989461471526636,0.5392922749685778,0.49348291352181406,0.5072764928090185,0.3722988578541189,0.27334738667001773,0.3291453168865957
0.6275,0.6,0.68125,0.55875,0.72625,0.45875,0.9225,0.8375,0.83875,0.8,0.78375,0.795,0.48306584163202165,0.4987866189693512,0.5394276322150247,0.49332412856909286,0.5028167068676905,0.3758344945579823,0.2691036051145196,0.3342846591126452
0.6275,0.6,0.68125,0.55875,0.72625,0.45875,0.9225,0.8375,0.83875,0.8,0.78375,0.795,0.48323987237745336,0.49883496084308226,0.5394518031518901,0.49305488452352103,0.49820503971418373,0.3834253485146484,0.2655919418947609,0.33963283372529224
0.6275,0.6,0.68125,0.55875,0.72625,0.45875,0.9225,0.8375,0.83875,0.8,0.78375,0.795,0.4831431886299913,0.49946823938895873,0.5402929517548101,0.492806351591601,0.4936071799337863,0.3834253485146484,0.2655919418947609,0.33963283372529224
0.62725,0.59875,0.6805,0.55775,0.72675,0.456,0.92325,0.8365,0.83825,0.8,0.784,0.7957500000000001,0.48319636469109545,0.4994440684520932,0.5436092042927584,0.4925923371464423,0.4898791855770721,0.40593087262764804,0.2569596274003567,0.35427199606286935
0.627,0.5975,0.67975,0.55675,0.72725,0.45325000000000004,0.924,0.8355,0.8377500000000001,0.8,0.78425,0.7965000000000001,0.48308517838151405,0.4984095523542493,0.5490621676496181,0.49293752179810346,0.48842250625636235,0.41478284496936146,0.25388686416906936,0.3615910580149589
0.6267499999999999,0.59625,0.679,0.5557500000000001,0.72775,0.45049999999999996,0.92475,0.8345,0.8372499999999999,0.8,0.7845,0.7972499999999999,0.4835202552450933,0.4968287730832447,0.5567146862612395,0.49455298604454057,0.49066620660013577,0.41478284496936146,0.25388686416906936,0.3615910580149589
0.6265,0.595,0.67825,0.55475,0.7282500000000001,0.44775,0.9255,0.8334999999999999,0.83675,0.8,0.78475,0.7979999999999999,0.48375229623900223,0.49501111863095815,0.5644010441844726,0.4963341388762658,0.4938626166602365,0.43449265583160296,0.2461332780924936,0.3786014140998083
0.62625,0.59375,0.6775,0.55375,0.72875,0.445,0.92625,0.8325,0.83625,0.8,0.785,0.79875,0.4843178961616552,0.49349801798317705,0.5719955525476168,0.4991163273111829,0.5016914048795204,0.5980054602069433,0.19523356691064883,0.5252319657202073
0.62625,0.59375,0.6775,0.55375,0.72875,0.445,0.92625,0.8325,0.83625,0.8,0.785,0.79875,0.48437590641013245,0.4937493957265784,0.5791984917335395,0.502374870496288,0.5142354154966436,0.624540440408636,0.18923866771763512,0.5519255623099076
0.62625,0.59375,0.6775,0.55375,0.72875,0.445,0.92625,0.8325,0.83625,0.8,0.785,0.79875,0.48440974572174417,0.49527699893647875,0.5869138547810113,0.5052329996452701,0.5310528116003261,0.624540440408636,0.18923866771763512,0.5519255623099076
0.62625,0.59375,0.6775,0.55375,0.72875,0.445,0.92625,0.8325,0.83625,0.8,0.785,0.79875,0.48422604660156626,0.49706564826452676,0.5925263463211834,0.5076630997149774,0.5543665831765183,0.678828034301896,0.17622338184509037,0.6275514659410855
0.62575,0.5935,0.67675,0.5545,0.73075,0.44875,0.92625,0.833,0.8377500000000001,0.8005,0.7859999999999999,0.79875,0.48422604660156626,0.500048341873731,0.604002707144929,0.5116810493118968,0.589603033687887,0.678828034301896,0.17622338184509037,0.6275514659410855
0.62525,0.59325,0.6759999999999999,0.55525,0.73275,0.4525,0.92625,0.8334999999999999,0.8392499999999999,0.8009999999999999,0.787,0.79875,0.47968191047084985,0.5036546456540656,0.619699313545393,0.5136624091346899,0.6244321669624678,0.699523847607724,0.18369828121863221,0.6886517844063431
0.62475,0.593,0.67525,0.556,0.7347499999999999,0.45625,0.92625,0.8340000000000001,0.84075,0.8015000000000001,0.7879999999999999,0.79875,0.47744851590447646,0.5028715072996229,0.6275065261529537,0.5171142557592775,0.6548981647197553,0.699523847607724,0.18369828121863221,0.6886517844063431
0.62425,0.59275,0.6745,0.55675,0.73675,0.46,0.92625,0.8345,0.8422499999999999,0.802,0.789,0.79875,0.477472686841342,0.5034564439717684,0.6367108189113411,0.5236451496105728,0.6770314053012296,0.6942268375450428,0.1885297349673011,0.6922177010793213
0.62375,0.5925,0.67375,0.5575,0.73875,0.46375,0.92625,0.835,0.84375,0.8025,0.79,0.79875,0.47276418833994005,0.5056995069128879,0.6352847336362757,0.5333310312946652,0.6866551552639997,0.6836312030366776,0.1921889348931247,0.6880687112257311
0.62375,0.5925,0.67375,0.5575,0.73875,0.46375,0.92625,0.835,0.84375,0.8025,0.79,0.79875,0.46289277772406456,0.5085710142125108,0.6232814463888621,0.543852259321814,0.6794546028991071,0.6366320217670991,0.20448122149999898,0.6586253280297283
0.62375,0.5925,0.67375,0.5575,0.73875,0.46375,0.92625,0.835,0.84375,0.8025,0.79,0.79875,0.4648747945470366,0.5050130523059074,0.5960021270424442,0.5656886410035223,0.6525647172605875,0.599469204034542,0.21706456433153087,0.6325237307820764
0.62375,0.5925,0.67375,0.5575,0.73875,0.46375,0.92625,0.835,0.84375,0.8025,0.79,0.79875,0.4462341680363531,0.5004060717393406,0.556927390505656,0.5879323410017739,0.6135381398613656,0.599469204034542,0.21706456433153087,0.6325237307820764
0.6255,0.59925,0.67475,0.56325,0.7404999999999999,0.47775,0.92675,0.836,0.84375,0.8009999999999999,0.79025,0.79825,0.4362274001740307,0.4859276805568984,0.521207580005801,0.5877873635301376,0.5673317216428053,0.44504803107607666,0.2748473310689454,0.5083597942482867
0.62725,0.606,0.6757500000000001,0.569,0.74225,0.49174999999999996,0.9272499999999999,0.8370000000000001,0.84375,0.7995,0.7905,0.7977500000000001,0.42741467659286475,0.4719085371749009,0.49430049308711205,0.5744287170357565,0.5222920258581223,0.0602056367213865,0.3590380526093778,0.09999515759484166
0.629,0.61275,0.67675,0.57475,0.7440000000000001,0.50575,0.9277500000000001,0.838,0.84375,0.7979999999999999,0.7907500000000001,0.7972499999999999,0.4209078603886687,0.4602339746688582,0.47390989074736534,0.553938555905834,0.48755954538303814,0.04861431347141834,0.352442653840311,0.06686789418658307
0.63075,0.6195,0.6777500000000001,0.5805,0.74575,0.51975,0.92825,0.8390000000000001,0.84375,0.7965000000000001,0.7909999999999999,0.79675,0.40681620419607467,0.45380450546263174,0.46339069902349417,0.523203313779048,0.4690093213087272,0.04861431347141834,0.352442653840311,0.06686789418658307
0.6325,0.62625,0.67875,0.58625,0.7475,0.53375,0.92875,0.84,0.84375,0.795,0.79125,0.79625,0.4183650778304167,0.4576525186116214,0.46938509136614137,0.48896789873590174,0.4666965840994069,0.02617803228297677,0.3465785994034271,0.01898719898015841
0.6325,0.62625,0.67875,0.58625,0.7475,0.53375,0.92875,0.84,0.84375,0.795,0.79125,0.79625,0.42667504592478006,0.475495504205743,0.4739195591221116,0.47876423996634204,0.47518812676781885,0.02617803228297677,0.3465785994034271,0.01898719898015841
0.633,0.6267499999999999,0.6795,0.58775,0.7482500000000001,0.53625,0.929,0.8420000000000001,0.843,0.795,0.79125,0.79675,0.4384317896161655,0.491235618292565,0.479406361790583,0.477777011871229,0.48597859927244175,0.027973226182020895,0.34716225259221606,0.0073062770594616785
0.6335000000000001,0.62725,0.68025,0.5892499999999999,0.7490000000000001,0.53875,0.92925,0.8440000000000001,0.8422499999999999,0.795,0.79125,0.7972499999999999,0.4584308227786909,0.5026056269941023,0.4856714686261239,0.4850742155239606,0.49273731483402966,0.04341714124224037,0.3338401451690546,0.0019730820824621887
0.634,0.62775,0.6809999999999999,0.59075,0.7497499999999999,0.54125,0.9295,0.846,0.8415,0.795,0.79125,0.7977500000000001,0.4784298559412163,0.5139756356956395,0.4919365754616649,0.49237141917669214,0.4994960303956176,0.044422491204065565,0.3339870641258022,0.0016772252350103682
0.6345000000000001,0.62825,0.68175,0.59225,0.7505,0.54375,0.92975,0.848,0.84075,0.795,0.79125,0.79825,0.493638209416997,0.5192642366818138,0.5010200135357247,0.5017742492261522,0.5026717292340909,0.04594420548772167,0.33267036416038814,0.0019761699405723746
0.635,0.62875,0.6825,0.59375,0.75125,0.54625,0.93,0.85,0.84,0.795,0.79125,0.79875,0.504810016436237,0.5184907667021174,0.5054771342937252,0.5065239901107529,0.5061649980859823,0.04594420548772167,0.33267036416038814,0.0019761699405723746
0.635,0.62875,0.6825,0.59375,0.75125,0.54625,0.93,0.85,0.84,0.795,0.79125,0.79875,0.5185052692642367,0.5178526539688678,0.5101711302330079,0.5108733168512547,0.5102657920025397,0.04467020652061959,0.33501270968346836,0.0021715606955820723
0.635,0.62875,0.6825,0.59375,0.75125,0.54625,0.93,0.85,0.84,0.795,0.79125,0.79875,0.5273228270327758,0.5175045924780044,0.5123803538625157,0.511032101803976,0.5124473591133332,0.04466376466223002,0.3339898458146397,0.0020739835061426375
0.635,0.62875,0.6825,0.59375,0.75125,0.54625,0.93,0.85,0.84,0.795,0.79125,0.79875,0.5360001933674949,0.5172193754229913,0.5145073963066809,0.5112046942377821,0.5128270622517556,0.04542301055577963,0.3336966274673716,0.0024640571351370114
0.635,0.62875,0.6825,0.59375,0.75125,0.54625,0.93,0.85,0.84,0.795,0.79125,0.79875,0.5417528763414869,0.5167939669341584,0.5155274098424055,0.5115774936356621,0.5095961338128692,0.04643480237599435,0.3338435464241192,0.0017719659108797437
0.63525,0.62925,0.6829999999999999,0.594,0.7509999999999999,0.54775,0.93025,0.851,0.84025,0.79525,0.79125,0.79925,0.5420961036449773,0.5150729962293339,0.5147926133616939,0.5137452534813217,0.5015671386295115,0.046684128940826866,0.3344293635524283,0.002465383710414786
0.6355,0.62975,0.6835,0.59425,0.75075,0.54925,0.9305,0.852,0.8405,0.7955,0.79125,0.79975,0.5362080634245383,0.5109929420864353,0.5123561829256502,0.5170037967744024,0.49076976206041945,0.046684128940826866,0.3344293635524283,0.002465383710414786
0.63575,0.63025,0.684,0.5945,0.7505,0.5507500000000001,0.9307500000000001,0.853,0.84075,0.7957500000000001,0.79125,0.80025,0.5271971381610752,0.5061152470269747,0.5091076090109252,0.5212012423027256,0.4804280293438148,0.04769269826448465,0.3342832185992371,0.00226803271746522
0.636,0.63075,0.6845,0.59475,0.7502500000000001,0.55225,0.9309999999999999,0.8540000000000001,0.841,0.7959999999999999,0.79125,0.8007500000000001,0.5167166199361888,0.5005075896741757,0.5053659479841439,0.5255850873140376,0.47212979000690974,0.04592166055072032,0.3341369192087166,0.002073356704001545
0.63625,0.63125,0.685,0.595,0.75,0.55375,0.93125,0.855,0.84125,0.79625,0.79125,0.80125,0.5053514454220246,0.49371072222759355,0.5015421057720197,0.5287953046392722,0.46769071539518464,0.04592004930244188,0.33442998311865535,0.0017780106535184
0.63625,0.63125,0.685,0.595,0.75,0.55375,0.93125,0.855,0.84125,0.79625,0.79125,0.80125,0.494155467465919,0.48642560185632794,0.4974958909407329,0.5283672753170525,0.46937521642618696,0.04592004930244188,0.33442998311865535,0.0017780106535184
0.63625,0.63125,0.685,0.595,0.75,0.55375,0.93125,0.855,0.84125,0.79625,0.79125,0.80125,0.4866673112249831,0.4813642076766895,0.49491443488349607,0.5272488766915103,0.47322057377825755,0.045672337120612125,0.33399092869285474,0.002171768382261682
0.6365,0.63125,0.68525,0.5954999999999999,0.75075,0.5539999999999999,0.93025,0.8552500000000001,0.84075,0.79625,0.79175,0.8015000000000001,0.480914628250991,0.4764430049308711,0.4925021753843179,0.5229409720703366,0.4797583714780709,0.045672337120612125,0.33399092869285474,0.002171768382261682
0.6367499999999999,0.63125,0.6855,0.596,0.7515000000000001,0.55425,0.92925,0.8554999999999999,0.84025,0.79625,0.7922499999999999,0.80175,0.47535531277192306,0.47179735086531954,0.4902059363820942,0.5137107342387316,0.4886296173928808,0.0456739452341663,0.3344304464306433,0.0027634964218909734
0.637,0.63125,0.6857500000000001,0.5965,0.75225,0.5545,0.92825,0.85575,0.83975,0.79625,0.7927500000000001,0.802,0.4711447355699507,0.469699313545393,0.48770666151020015,0.5020434926238707,0.49696237500059603,0.04769269826448465,0.33340526418496513,0.002464963971269531
0.63725,0.63125,0.6859999999999999,0.597,0.753,0.55475,0.9272499999999999,0.856,0.8392499999999999,0.79625,0.79325,0.8022499999999999,0.4685632795127139,0.47063714589577493,0.48601953011698734,0.4903762510090099,0.5033828096510652,0.046928621760823984,0.3329669837627208,0.0018771327075385246
0.6375,0.63125,0.68625,0.5975,0.75375,0.555,0.92625,0.85625,0.83875,0.79625,0.79375,0.8025,0.4659479841438654,0.4730397370202069,0.48380547230010634,0.47797031455488265,0.5116396267606665,0.045411738087278955,0.33428399260279346,0.0025644053513555645
0.6375,0.63125,0.68625,0.5975,0.75375,0.555,0.92625,0.85625,0.83875,0.79625,0.79375,0.8025,0.464091656192594,0.47645750749299043,0.4820361597215508,0.4683672772174221,0.5183500166783349,0.045411738087278955,0.33428399260279346,0.0025644053513555645
0.6375,0.63125,0.68625,0.5975,0.75375,0.555,0.92625,0.85625,0.83875,0.79625,0.79375,0.8025,0.46412066131683266,0.4816494247317026,0.4807599342550517,0.46397652846556764,0.524832584345833,0.0481994013660934,0.3335521831417127,0.002859954722732243
0.63775,0.63075,0.6865000000000001,0.597,0.7535,0.55475,0.92625,0.8552500000000001,0.8384999999999999,0.7957500000000001,0.79375,0.8022499999999999,0.46640239775693704,0.4879773760030939,0.48076960262979795,0.46489471969513374,0.5339937852039155,0.0481994013660934,0.3335521831417127,0.002859954722732243
0.638,0.63025,0.68675,0.5965,0.75325,0.5545,0.92625,0.85425,0.83825,0.79525,0.79375,0.802,0.5039833703954365,0.4900512423861549,0.47104321763511553,0.464756646179991,0.5333172233816781,0.04541334933555742,0.33428461035211077,0.0016743662688263193
0.63825,0.62975,0.687,0.596,0.753,0.55425,0.92625,0.8532500000000001,0.838,0.79475,0.79375,0.80175,0.4926713719423765,0.4966354055883206,0.4516677946437204,0.46485329725187896,0.5153607171068993,0.044142572865012275,0.33399200975415994,0.002268740598490283
0.6385000000000001,0.62925,0.6872499999999999,0.5954999999999999,0.75275,0.5539999999999999,0.92625,0.85225,0.8377500000000001,0.79425,0.79375,0.8015000000000001,0.46306197428212315,0.5006671178574882,0.5075510006767863,0.48375560971839354,0.4616430784149867,0.044142572865012275,0.3339918553168307,0.0022670073814254
0.63875,0.62875,0.6875,0.595,0.7525,0.55375,0.92625,0.85125,0.8375,0.79375,0.79375,0.80125,0.4329836604466789,0.5033162525379483,0.5634003673982404,0.5021677598456595,0.4055781843509191,0.044142572865012275,0.3339918553168307,0.0022670073814254
0.63875,0.62875,0.6875,0.595,0.7525,0.55375,0.92625,0.85125,0.8375,0.79375,0.79375,0.80125,0.4468239388958716,0.507536498114667,0.5703277579038963,0.5341801855507088,0.31252330025930025,0.044142572865012275,0.3339918553168307,0.0022670073814254
0.63875,0.62875,0.6875,0.595,0.7525,0.55375,0.92625,0.85125,0.8375,0.79375,0.79375,0.80125,0.42347481388378616,0.5295320506622837,0.641187276418834,0.5645426278477126,0.2340421150588814,0.04490342687211603,0.33413831096159025,0.0020719203603885403
0.63875,0.62875,0.6875,0.595,0.7525,0.55375,0.92625,0.85125,0.8375,0.79375,0.79375,0.80125,0.4460988107899062,0.5278159141448322,0.6940201102194721,0.5743872949164284,0.183962725389885,0.09998086470259494,0.31659050750264905,0.043946572503131144
0.63775,0.6245,0.68625,0.59075,0.74925,0.54,0.9275,0.8515,0.8390000000000001,0.7959999999999999,0.795,0.8035,0.4799574591511167,0.5443681717103355,0.6701585613458377,0.553130822689363,0.1736900320222649,0.1336531356052914,0.27327334941434134,0.07118786506165091
0.6367499999999999,0.62025,0.685,0.5865,0.746,0.52625,0.92875,0.85175,0.8405,0.79825,0.79625,0.8057500000000001,0.5224354635985691,0.5789229430532727,0.6563956298946148,0.5184328598372357,0.15872282445511737,0.1336531356052914,0.27327334941434134,0.07118786506165091
0.63575,0.616,0.68375,0.58225,0.74275,0.5125,0.93,0.852,0.8420000000000001,0.8005,0.7975,0.8079999999999999,0.5057236778497535,0.5869670308421154,0.6727255148409552,0.4636175356849682,0.19114257063622092,0.24990291523809313,0.19780018814027858,0.20969031968931187
0.63475,0.61175,0.6825,0.578,0.7395,0.49875,0.93125,0.85225,0.8434999999999999,0.8027500000000001,0.79875,0.81025,0.5162283670115053,0.5723677849753457,0.6354732669438268,0.43917155832607563,0.274194000978794,0.24990291523809313,0.19780018814027858,0.20969031968931187
0.63375,0.6075,0.68125,0.57375,0.73625,0.485,0.9325,0.8525,0.845,0.805,0.8,0.8125,0.5099825969254568,0.5725901575945084,0.6157159431499565,0.43074214878266814,0.3516879571123199,0.27922394747032186,0.2005967392996207,0.23960836299549215
0.63375,0.6075,0.68125,0.57375,0.73625,0.485,0.9325,0.8525,0.845,0.805,0.8,0.8125,0.5105675335976022,0.5558880402204389,0.595523542492507,0.437342079823437,0.4215602355152272,0.2998215561339951,0.3768692558352618,0.3202097465572506
0.63375,0.6075,0.68125,0.57375,0.73625,0.485,0.9325,0.8525,0.845,0.805,0.8,0.8125,0.501648457894228,0.5199120177898096,0.5640384801314899,0.4605592004897045,0.49572661418951414,0.608113463276202,0.3758542755378676,0.42231603925021793
0.63375,0.6075,0.68125,0.57375,0.73625,0.485,0.9325,0.8525,0.845,0.805,0.8,0.8125,0.5033549260369332,0.5035531277192304,0.5458667697959972,0.4860200209058799,0.5485674823675067,0.6804254490421213,0.39269639306421006,0.4732207834851883
0.6305,0.6045,0.6795,0.57,0.73225,0.4755,0.9327500000000001,0.8490000000000001,0.843,0.7979999999999999,0.794,0.8035,0.48002513777434014,0.49657739533984335,0.5263559895581553,0.4861580947449493,0.5404970647408943,0.6804254490421213,0.39269639306421006,0.4732207834851883
0.62725,0.6015,0.6777500000000001,0.56625,0.7282500000000001,0.466,0.9329999999999999,0.8454999999999999,0.841,0.7909999999999999,0.7879999999999999,0.7945,0.4789906216764962,0.4950787972541816,0.5253843178961617,0.4903900587600337,0.5161546418705055,0.41837323276744964,0.815985300313416,0.9514617793685877
0.624,0.5985,0.6759999999999999,0.5625,0.72425,0.45649999999999996,0.93325,0.8420000000000001,0.8390000000000001,0.784,0.782,0.7855,0.48069225563182827,0.49316445905443296,0.5312530213671082,0.492530203751499,0.4950569550280636,0.41837323276744964,0.815985300313416,0.9514617793685877
0.62075,0.5954999999999999,0.67425,0.55875,0.7202500000000001,0.447,0.9335,0.8384999999999999,0.8370000000000001,0.777,0.7759999999999999,0.7765000000000001,0.4861838924876728,0.49314512230494056,0.5383399400560765,0.492468070518519,0.47897825322376975,0.20445332535516747,1.0,1.0
0.6175,0.5925,0.6725,0.555,0.71625,0.4375,0.93375,0.835,0.835,0.77,0.77,0.7675,0.4919607463985304,0.4976264139998066,0.5471623320119888,0.49391094241213157,0.4752019331961422,0.5999786029990289,0.5214266859434493,0.6433628486956599
0.6175,0.5925,0.6725,0.555,0.71625,0.4375,0.93375,0.835,0.835,0.77,0.77,0.7675,0.49641786715653097,0.5005414289857875,0.5560959102774824,0.49367621685332097,0.47680358998848826,0.5999786029990289,0.5214266859434493,0.6433628486956599
0.6175,0.5925,0.6725,0.555,0.71625,0.4375,0.93375,0.835,0.835,0.77,0.77,0.7675,0.49785362080634243,0.4997921299429566,0.5566373392632699,0.49435968252407647,0.4866206418385922,0.5806611467662139,0.3417957534414796,0.507008990105234
0.61775,0.59275,0.6725,0.55525,0.71575,0.43925,0.93025,0.833,0.83325,0.768,0.7675,0.7605,0.49672242096103647,0.5002223726191627,0.552310741564343,0.49446323798436015,0.4957128063305148,0.5261046342813892,0.1232113241124485,0.37433495341708156
0.618,0.593,0.6725,0.5555,0.71525,0.441,0.92675,0.831,0.8315,0.7659999999999999,0.765,0.7535,0.49307744368171713,0.5,0.5480421541138935,0.494200897625343,0.4991094235706404,0.5030006223399455,0.17912835891107426,0.3955543900348185
0.6182500000000001,0.59325,0.6725,0.5557500000000001,0.71475,0.44275,0.92325,0.8290000000000001,0.82975,0.764,0.7625,0.7465,0.4920187566470076,0.49896064971478293,0.5472735183215701,0.4939592683799777,0.4973489817985793,0.5030006223399455,0.17912835891107426,0.3955543900348185
0.6185,0.5935,0.6725,0.556,0.7142499999999999,0.4445,0.91975,0.8270000000000001,0.828,0.762,0.76,0.7395,0.49245383351058686,0.49821135067195205,0.5476119114376873,0.49459440819086264,0.49520883691508955,0.4575792261671687,0.2558348276265373,0.42678596115532375
0.61875,0.59375,0.6725,0.55625,0.71375,0.44625,0.91625,0.825,0.82625,0.76,0.7575,0.7325,0.49333848979986467,0.49843372329111474,0.548443391665861,0.49546427350657035,0.49413876440585996,0.42176608591521275,0.32653155663009376,0.35398231493163784
0.61875,0.59375,0.6725,0.55625,0.71375,0.44625,0.91625,0.825,0.82625,0.76,0.7575,0.7325,0.49412646234168034,0.4986657642850237,0.5491201778980953,0.4964445979151287,0.4931998621031328,0.18183455305820678,0.33129809401006494,0.19519242982277393
0.61875,0.59375,0.6725,0.55625,0.71375,0.44625,0.91625,0.825,0.82625,0.76,0.7575,0.7325,0.4943826742724548,0.4989268104031712,0.5498017983177028,0.49675526413401644,0.4933793580615304,0.18183455305820678,0.33129809401006494,0.19519242982277393
0.61875,0.59375,0.6725,0.55625,0.71375,0.44625,0.91625,0.825,0.82625,0.76,0.7575,0.7325,0.4946823938895872,0.49875761384511264,0.5499129846272841,0.49691404908673764,0.4938902312984797,0.16818583189703143,0.33070640281251235,0.1837369096941308
0.621,0.597,0.67425,0.5595,0.7170000000000001,0.45899999999999996,0.9179999999999999,0.82525,0.8275,0.7602500000000001,0.75725,0.7302500000000001,0.4949531083824809,0.49840471816687615,0.5497051145702407,0.49701760449303356,0.49429064544257845,0.1317822600580238,0.33918298997166835,0.1525344321719136
0.62425,0.60275,0.677,0.565,0.72275,0.47700000000000004,0.9209999999999999,0.8275,0.83075,0.762,0.757,0.72675,0.4947984143865416,0.4982838634825486,0.5505559315479068,0.4971142562127748,0.49118398346965203,0.1317822600580238,0.33918298997166835,0.1525344321719136
0.6275,0.6085,0.67975,0.5705,0.7284999999999999,0.495,0.924,0.82975,0.8340000000000001,0.76375,0.7567499999999999,0.7232500000000001,0.49520448612588225,0.49817751136034033,0.5505704341100262,0.4971142562127748,0.4875388334055819,0.12394691328136065,0.3429846229040502,0.14394592312363924
0.63075,0.61425,0.6825,0.5760000000000001,0.73425,0.513,0.927,0.8320000000000001,0.8372499999999999,0.7655,0.7565000000000001,0.7197499999999999,0.49596345354345933,0.4984095523542493,0.5501740307454317,0.49717638944575476,0.4841007941541037,0.12394691328136065,0.3429846229040502,0.14394592312363924
0.634,0.62,0.68525,0.5815,0.74,0.531,0.93,0.8342499999999999,0.8405,0.76725,0.75625,0.71625,0.49675142608527506,0.4987141061587547,0.5494247317026008,0.4972661374249535,0.4812564724862066,0.10678026660848788,0.3478058747044351,0.12145201002417914
0.635,0.6225,0.68625,0.58375,0.7425,0.53625,0.93125,0.83625,0.8425,0.76875,0.75625,0.715,0.4974137097553901,0.499105675335976,0.5488446292178285,0.4974318260642295,0.4793717642751793,0.10678026660848788,0.3478058747044351,0.12145201002417914
0.635,0.6225,0.68625,0.58375,0.7425,0.53625,0.93125,0.83625,0.8425,0.76875,0.75625,0.715,0.49830803441941407,0.4996132650101518,0.5470994875761385,0.49741111500456536,0.4814566796662315,0.1017309687276364,0.3499999113348039,0.11562813936269163
0.635,0.6225,0.68625,0.58375,0.7425,0.53625,0.93125,0.83625,0.8425,0.76875,0.75625,0.715,0.4984772309774727,0.5005269264236681,0.5464517064681427,0.49747324826453926,0.48477045245174977,0.08356380583777384,0.3619945027287695,0.08976374088470498
0.635,0.6225,0.68625,0.58375,0.7425,0.53625,0.93125,0.83625,0.8425,0.76875,0.75625,0.715,0.4983660446678913,0.5011698733442909,0.5460939766025331,0.49747324826453926,0.48858819489563826,0.08052037727046159,0.365654165966581,0.08906569909405117
0.63525,0.62275,0.6865000000000001,0.5845,0.743,0.5375,0.93025,0.8345,0.8422499999999999,0.769,0.75625,0.7155,0.4981436720487286,0.5014502562119307,0.5457072416126849,0.4974594408914299,0.4926682777120408,0.07773110587809297,0.368288492521385,0.0891635999753426
0.6355,0.623,0.68675,0.5852499999999999,0.7434999999999999,0.53875,0.92925,0.8327500000000001,0.8420000000000001,0.76925,0.75625,0.716,0.49811466692448997,0.5015131006477811,0.5449531083824809,0.4975215741244099,0.49705212293930395,0.07191128963519122,0.3723859728694529,0.08610460095835419
0.63575,0.6232500000000001,0.687,0.586,0.7440000000000001,0.54,0.92825,0.831,0.84175,0.7695000000000001,0.75625,0.7165,0.4987334429082471,0.5006961229817267,0.5442811563376196,0.4976527442769246,0.5017880565587708,0.07191128963519122,0.3723859728694529,0.08610460095835419
0.636,0.6235,0.6872499999999999,0.58675,0.7445,0.54125,0.9272499999999999,0.8292499999999999,0.8415,0.7697499999999999,0.75625,0.7170000000000001,0.4995600889490477,0.49895098134003674,0.5436768829159818,0.4978046255160972,0.5069105968412514,0.07140137030647413,0.37604594498192306,0.08471674626008156
0.63625,0.62375,0.6875,0.5875,0.745,0.5425,0.92625,0.8275,0.84125,0.77,0.75625,0.7175,0.5003432273034902,0.49616648941312963,0.5437010538528473,0.4982809803675124,0.5123645146722227,0.06354508670636379,0.38058387150866524,0.08529893006770513
0.63625,0.62375,0.6875,0.5875,0.745,0.5425,0.92625,0.8275,0.84125,0.77,0.75625,0.7175,0.5009475007251281,0.4934303393599536,0.5441796384027845,0.498985157084435,0.5175353811250036,0.061769218382488354,0.3840972353559563,0.08440306078973774
0.63625,0.62375,0.6875,0.5875,0.745,0.5425,0.92625,0.8275,0.84125,0.77,0.75625,0.7175,0.5009088272261433,0.49123078410519194,0.5449724451319733,0.49982740765392397,0.5226579214074842,0.05545236339292437,0.3849756530822162,0.08568376288237912
0.63625,0.62375,0.6875,0.5875,0.745,0.5425,0.92625,0.8275,0.84125,0.77,0.75625,0.7175,0.49897031808952913,0.48998356376293145,0.5485207386638307,0.5038936829217568,0.5258957534789376,0.05545236339292437,0.3849756530822162,0.08568376288237912
0.63625,0.62375,0.6875,0.5875,0.745,0.5425,0.92625,0.8275,0.84125,0.77,0.75625,0.7175,0.49713816107512326,0.4909020593638209,0.5501546939959393,0.5078633064158609,0.5259164649165161,0.05520464807637035,0.38453613534442765,0.08311818562930899
0.63575,0.62375,0.6875,0.588,0.745,0.54375,0.9272499999999999,0.8277500000000001,0.841,0.77075,0.75625,0.7204999999999999,0.49526733056173255,0.49334815817461086,0.5516291211447356,0.5118467374517859,0.524363133876065,0.047116755373042,0.38497318026803734,0.0787948874015815
0.63525,0.62375,0.6875,0.5885,0.745,0.545,0.92825,0.828,0.84075,0.7715000000000001,0.75625,0.7234999999999999,0.4933916658609688,0.4965000483418737,0.5525186116213865,0.5136831198704273,0.5210355536094619,0.042048135051746136,0.38585067137032136,0.07761098164635896
0.63475,0.62375,0.6875,0.589,0.745,0.54625,0.92925,0.82825,0.8405,0.77225,0.75625,0.7265,0.4923281446388862,0.4990621676496181,0.5532147346031132,0.5141663784151457,0.5161063167664637,0.042048135051746136,0.38585067137032136,0.07761098164635896
0.63425,0.62375,0.6875,0.5895,0.745,0.5475,0.93025,0.8284999999999999,0.84025,0.773,0.75625,0.7295,0.4929082471236585,0.5009716716619936,0.5513535724644687,0.5107766650775257,0.5117707975070468,0.02759185876118585,0.37472522601212715,0.0778192901386295
0.63375,0.62375,0.6875,0.59,0.745,0.54875,0.93125,0.82875,0.84,0.77375,0.75625,0.7325,0.4936092042927584,0.5011602049695446,0.5509765058493667,0.5071798410285411,0.5095132895742128,0.027334482224409616,0.3734080627347252,0.07851016642699525
0.63375,0.62375,0.6875,0.59,0.745,0.54875,0.93125,0.82875,0.84,0.77375,0.75625,0.7325,0.4944358503335589,0.5008749879145316,0.5500048341873731,0.5028305142340515,0.5079461511606524,0.031130714826881897,0.373701126644664,0.08039032836637403
0.63375,0.62375,0.6875,0.59,0.745,0.54875,0.93125,0.82875,0.84,0.77375,0.75625,0.7325,0.49466789132746786,0.4997872957555835,0.5496084308227787,0.5001656886325274,0.5076630996339957,0.09415782909786058,0.3574670833911504,0.11076135877337415
0.63375,0.62375,0.6875,0.59,0.745,0.54875,0.93125,0.82875,0.84,0.77375,0.75625,0.7325,0.4944116793966934,0.4994440684520932,0.5494053949531084,0.4985916465324124,0.5079530546852439,0.11187787372517466,0.35351899299709927,0.11649692268027372
0.6325,0.6214999999999999,0.68625,0.58825,0.74375,0.53925,0.93175,0.82875,0.8395,0.7752500000000001,0.7575,0.7402500000000001,0.49393792903412936,0.4994634052015856,0.5490960069612298,0.49754918883688626,0.5083051429694719,0.1257952438916269,0.3535223942521638,0.12292509359786906
0.63125,0.61925,0.685,0.5865,0.7425,0.52975,0.9322499999999999,0.82875,0.8390000000000001,0.7767499999999999,0.75875,0.748,0.49338683167359565,0.499386058203616,0.5484772309774727,0.49630652402207154,0.5080773211512039,0.13414051313173148,0.3554281581636223,0.12876173168884025
0.63,0.617,0.68375,0.58475,0.74125,0.52025,0.9327500000000001,0.82875,0.8384999999999999,0.77825,0.76,0.75575,0.49279706081407715,0.4988542975925747,0.5488252924683361,0.49623748710253685,0.5067103898366867,0.14146110996956643,0.3539670138725493,0.13380691513593349
0.62875,0.61475,0.6825,0.583,0.74,0.51075,0.93325,0.82875,0.838,0.7797499999999999,0.76125,0.7635,0.4930919462438364,0.4988397950304554,0.5491443488349609,0.4966517086737327,0.5054332066093439,0.14675490067041502,0.35514019613628034,0.14043135121311748
0.6275,0.6125,0.68125,0.58125,0.73875,0.50125,0.93375,0.82875,0.8375,0.78125,0.7625,0.77125,0.49353669148216184,0.498680266847143,0.5496035966354056,0.4973144632510818,0.504466689573895,0.14675490067041502,0.35514019613628034,0.14043135121311748
0.6275,0.6125,0.68125,0.58125,0.73875,0.50125,0.93375,0.82875,0.8375,0.78125,0.7625,0.77125,0.4938170743498018,0.4988929710915595,0.5504592478004448,0.49778391442269077,0.5040662754297962,0.17911291334211785,0.3403629729286187,0.16072069453229745
0.6275,0.6125,0.68125,0.58125,0.73875,0.50125,0.93375,0.82875,0.8375,0.78125,0.7625,0.77125,0.4942086435270231,0.4992797060814077,0.5518950014502562,0.49823265453463567,0.5049706591782774,0.19326672949134777,0.33026688507472374,0.16912771348836964
0.627,0.6104999999999999,0.6805,0.57875,0.7365,0.48924999999999996,0.9322499999999999,0.82875,0.8377500000000001,0.78075,0.76225,0.77225,0.49466305714009473,0.5000386734989848,0.5525234458087596,0.4979841216027157,0.5068139452429826,0.19326672949134777,0.33026688507472374,0.16912771348836964
0.6265,0.6085,0.67975,0.57625,0.73425,0.47725,0.9307500000000001,0.82875,0.838,0.7802500000000001,0.762,0.77325,0.49478391182442233,0.5003915691772213,0.5525041090592672,0.4965550570822125,0.5096582668838858,0.3011873429626567,0.3024909116902132,0.25852232217243126
0.626,0.6065,0.679,0.57375,0.732,0.46525,0.92925,0.82875,0.83825,0.7797499999999999,0.7617499999999999,0.77425,0.494295658899739,0.5002030358696703,0.5518514937638983,0.49467725242951893,0.5122126333385715,0.313045700834899,0.3013271573712098,0.2732303741192631
0.6255,0.6045,0.67825,0.57125,0.7297499999999999,0.45325000000000004,0.9277500000000001,0.82875,0.8384999999999999,0.77925,0.7615000000000001,0.7752500000000001,0.49373005897708594,0.4994295658899739,0.5503577298656096,0.49303417340986916,0.5136071793183257,0.313045700834899,0.3013271573712098,0.2732303741192631
0.625,0.6025,0.6775,0.56875,0.7275,0.44125,0.92625,0.82875,0.83875,0.77875,0.76125,0.77625,0.4928792419994199,0.4982500241709369,0.5487189403461278,0.4924611668319643,0.5132412836609882,0.35472535531731353,0.303246985981095,0.3143940212051793
0.625,0.6025,0.6775,0.56875,0.7275,0.44125,0.92625,0.82875,0.83875,0.77875,0.76125,0.77625,0.49204776177124626,0.49706081407715363,0.5470849850140191,0.49219882641895935,0.5124473590053575,0.36914781733709606,0.30749618011075835,0.3244711179808017
0.625,0.6025,0.6775,0.56875,0.7275,0.44125,0.92625,0.82875,0.83875,0.77875,0.76125,0.77625,0.49142415160011604,0.4962196654742338,0.5462003287247413,0.4934483949270773,0.5097618222901817,0.36914781733709606,0.30749618011075835,0.3244711179808017
0.625,0.6025,0.6775,0.56875,0.7275,0.44125,0.92625,0.82875,0.83875,0.77875,0.76125,0.77625,0.49131779947790777,0.4960456347288021,0.5459102774823552,0.49540904389940876,0.5063444941793492,0.40993483400379493,0.3124754812570606,0.3494969711991252
0.625,0.6025,0.6775,0.56875,0.7275,0.44125,0.92625,0.82875,0.83875,0.77875,0.76125,0.77625,0.491612684907667,0.49622449966160687,0.546703084211544,0.4973765964975587,0.503334483926164,0.4155085461784211,0.314669975748688,0.35168534952628505
0.625,0.60175,0.677,0.5670000000000001,0.72675,0.43799999999999994,0.92625,0.8290000000000001,0.83875,0.77875,0.762,0.77775,0.49222179251667797,0.49713816107512326,0.5479841438654163,0.4983914394198722,0.5019951673848595,0.4155085461784211,0.314669975748688,0.35168534952628505
0.625,0.601,0.6765000000000001,0.56525,0.726,0.43475,0.92625,0.8292499999999999,0.83875,0.77875,0.76275,0.77925,0.4927052112539882,0.49810499854974377,0.5489461471526637,0.49881256473161056,0.5015050051535865,0.4289272694846569,0.2997361003987121,0.3547090885840207
0.625,0.60025,0.6759999999999999,0.5635,0.7252500000000001,0.4315,0.92625,0.8295,0.83875,0.77875,0.7635,0.78075,0.49312095136807504,0.49874794547036644,0.5498791453156724,0.49846738007994934,0.502126337591362,0.4289272694846569,0.2997361003987121,0.3547090885840207
0.625,0.5995,0.6755,0.56175,0.7245,0.42825,0.92625,0.82975,0.83875,0.77875,0.76425,0.7822499999999999,0.4934448419220729,0.4990476650874988,0.5506477811079957,0.4974870556781395,0.5038591645632167,0.43954383454702073,0.27821887602517587,0.35760535417307804
0.625,0.59875,0.675,0.56,0.72375,0.425,0.92625,0.83,0.83875,0.77875,0.765,0.78375,0.4933288214251184,0.49892197621579815,0.5502465435560282,0.49634104258981443,0.5058405246019607,0.43954383454702073,0.27821887602517587,0.35760535417307804
0.625,0.59875,0.675,0.56,0.72375,0.425,0.92625,0.83,0.83875,0.77875,0.765,0.78375,0.49293725224789714,0.4981243352992362,0.5501836991201778,0.4956506733134859,0.5071384189159615,0.4620574117666886,0.2628510426812669,0.382336705184995
0.625,0.59875,0.675,0.56,0.72375,0.425,0.92625,0.83,0.83875,0.77875,0.765,0.78375,0.49304360437010536,0.497408875568017,0.552122208256792,0.4955816363939512,0.508857438433725,0.5443810297734137,0.2695938255359791,0.45745126051101825
0.625,0.59875,0.675,0.56,0.72375,0.425,0.92625,0.83,0.83875,0.77875,0.765,0.78375,0.49314995649231363,0.49742821231750944,0.5541380643913758,0.4956437696269312,0.5121090778782877,0.5580458540132008,0.26388673574988775,0.4702055265260789
0.62425,0.598,0.67475,0.55775,0.7234999999999999,0.42225,0.927,0.82975,0.83825,0.77925,0.7665000000000001,0.7845,0.49328047955138743,0.4974330465048825,0.5561780914628252,0.49590610993196055,0.5148981699457718,0.5580458540132008,0.26388673574988775,0.4702055265260789
0.6235,0.5972500000000001,0.6745,0.5555,0.7232500000000001,0.41950000000000004,0.9277500000000001,0.8295,0.8377500000000001,0.7797499999999999,0.768,0.78525,0.49355602823165423,0.49741854394276325,0.5629362854104225,0.49536071820824995,0.5247290295334026,0.6043534461433038,0.23402964122565914,0.5088845399034848
0.62275,0.5965,0.67425,0.55325,0.723,0.41674999999999995,0.9285,0.8292499999999999,0.8372499999999999,0.7802500000000001,0.7695000000000001,0.7859999999999999,0.49352702310741564,0.497926133616939,0.5735714976312482,0.4964584053962136,0.5503141161995869,0.6043534461433038,0.23402964122565914,0.5088845399034848
0.622,0.59575,0.674,0.551,0.72275,0.414,0.92925,0.8290000000000001,0.83675,0.78075,0.7709999999999999,0.78675,0.4931064488059557,0.49830803441941407,0.582519578458861,0.49721781167305845,0.57505695235027,0.6228246835574994,0.22319911665917508,0.5236258560216572
0.6225,0.59875,0.675,0.5525,0.72675,0.4235,0.934,0.83325,0.8377500000000001,0.7845,0.7752500000000001,0.78975,0.4928599052499275,0.4997969641303297,0.5934786812336846,0.4998619261609306,0.6121712079799768,0.6491522045718054,0.21339423765035723,0.5553760475995219
0.62375,0.6025,0.67625,0.55625,0.731,0.43575,0.938,0.8377500000000001,0.8392499999999999,0.7877500000000001,0.778,0.792,0.4923716523252441,0.5022188920042541,0.6043991105095233,0.5020158784175297,0.6512737270650436,0.6615639666679377,0.2155899730913485,0.5669520927364907
0.625,0.60625,0.6775,0.56,0.7352500000000001,0.44799999999999995,0.9420000000000001,0.8422499999999999,0.84075,0.7909999999999999,0.78075,0.79425,0.49132263366528084,0.5037948370878855,0.6114618582616262,0.5046461855322925,0.6831825960141026,0.7018587751980853,0.19773194864363583,0.601459919356622
0.62625,0.61,0.67875,0.56375,0.7395,0.46025,0.946,0.84675,0.8422499999999999,0.79425,0.7835,0.7965000000000001,0.4883641109929421,0.5036304747172,0.6104273421637822,0.5063859162716835,0.6966378936883473,0.4780321829790723,0.2739704595328884,0.4858135989897352
0.6275,0.61375,0.68,0.5675,0.74375,0.4725,0.95,0.85125,0.84375,0.7975,0.78625,0.79875,0.4820264913468046,0.5034757807212608,0.6033017499758291,0.5125647219467262,0.704956844678782,0.4261283368720661,0.2976775416443529,0.44952976810662093
0.6275,0.61375,0.68,0.5675,0.74375,0.4725,0.95,0.85125,0.84375,0.7975,0.78625,0.79875,0.47775790389635503,0.5018224886396597,0.5888813690418641,0.518308594990909,0.6965619549178421,0.4261283368720661,0.2976775416443529,0.44952976810662093
0.6275,0.61375,0.68,0.5675,0.74375,0.4725,0.95,0.85125,0.84375,0.7975,0.78625,0.79875,0.47219858841728707,0.5020448612588224,0.5750749299042831,0.5286227126373683,0.6772109021234316,0.290414574589562,0.3443588244294447,0.32487350125542735
0.6275,0.61375,0.68,0.5675,0.74375,0.4725,0.95,0.85125,0.84375,0.7975,0.78625,0.79875,0.4616552257565503,0.5014357536498115,0.5412597892294305,0.539109422393707,0.6402140107307999,0.290414574589562,0.3443588244294447,0.32487350125542735
0.62875,0.61625,0.67975,0.57225,0.74425,0.48575,0.9490000000000001,0.8504999999999999,0.84425,0.7977500000000001,0.7857500000000001,0.79925,0.45589287440781207,0.5004302426762062,0.5236198395049793,0.5370106996025515,0.5976113206729327,0.24745931616121553,0.3510734742534839,0.28070625198812443
0.63,0.61875,0.6795,0.5770000000000001,0.7447499999999999,0.499,0.948,0.8497499999999999,0.8447499999999999,0.7979999999999999,0.78525,0.79975,0.4581939475974089,0.4969883012665571,0.5046698250024171,0.5234173275493597,0.55351743194379,0.20600644644135646,0.3544218354412188,0.23723386310080677
0.63125,0.62125,0.67925,0.58175,0.7452500000000001,0.51225,0.9470000000000001,0.8490000000000001,0.8452500000000001,0.79825,0.78475,0.80025,0.45563182828966453,0.4955525476167456,0.4937493957265784,0.5034380393324599,0.5113289609196932,0.13652909152809636,0.34780092907607735,0.16064855365979727
0.6325,0.62375,0.679,0.5865,0.74575,0.5255,0.946,0.8482500000000001,0.84575,0.7985,0.78425,0.8007500000000001,0.456033065841632,0.4948322536981533,0.48307551000676785,0.4802347265251917,0.480573007787231,0.11101073689145374,0.342957267510753,0.1270519358187888
0.63375,0.62625,0.67875,0.59125,0.74625,0.53875,0.945,0.8475,0.84625,0.79875,0.78375,0.80125,0.46432369718650296,0.49733152857004737,0.49105675335976023,0.4593303435541345,0.4686710407215351,0.08980980665450118,0.3365050775687105,0.09799106346296092
0.63375,0.62625,0.67875,0.59125,0.74625,0.53875,0.945,0.8475,0.84625,0.79875,0.78375,0.80125,0.4715894808082761,0.5018466595765252,0.4866866479744755,0.4545806025885522,0.4660338297582543,0.056732804218416026,0.3332687016138308,0.051831256341592746
0.63375,0.62625,0.67875,0.59125,0.74625,0.53875,0.945,0.8475,0.84625,0.79875,0.78375,0.80125,0.4754906700183699,0.5082664604080054,0.49067968674465823,0.4600759422689128,0.4698791866784227,0.045175298373949874,0.3332563375429364,0.0015767741109775444
0.63375,0.62625,0.67875,0.59125,0.74625,0.53875,0.945,0.8475,0.84625,0.79875,0.78375,0.80125,0.4819539785362081,0.5125882239195592,0.4917383737793677,0.470631688998774,0.47429754996054485,0.04644285548266239,0.33369523753140773,0.0020700779986722413
0.63425,0.626,0.68,0.5920000000000001,0.74725,0.5407500000000001,0.9455,0.8490000000000001,0.8452500000000001,0.7995,0.78425,0.802,0.48788069225563185,0.5129217828483033,0.4922024557671855,0.4817811535011736,0.4757818435955712,0.04644285548266239,0.33369523753140773,0.0020700779986722413
0.63475,0.62575,0.68125,0.59275,0.7482500000000001,0.54275,0.946,0.8504999999999999,0.84425,0.80025,0.78475,0.8027500000000001,0.49200425408488835,0.5119404428115634,0.49391859228463697,0.49109423577388905,0.4756575771296112,0.04618869830771879,0.33325788191622957,0.002070799600739182
0.63525,0.6255,0.6825,0.5935,0.74925,0.5447500000000001,0.9465,0.852,0.84325,0.8009999999999999,0.78525,0.8035,0.49461471526636375,0.5110992942086435,0.49537368268394083,0.4968312048615783,0.47531929621849245,0.04618869830771879,0.33325788191622957,0.002070799600739182
0.63575,0.62525,0.68375,0.59425,0.7502500000000001,0.54675,0.9470000000000001,0.8534999999999999,0.8422499999999999,0.80175,0.7857500000000001,0.80425,0.4955332108672532,0.5105772019723485,0.49576041767378903,0.5010562651361202,0.47714877493708224,0.044917921837173615,0.33355079138883903,0.0015757512696726074
0.63625,0.625,0.685,0.595,0.75125,0.54875,0.9475,0.855,0.84125,0.8025,0.78625,0.805,0.4964227013439041,0.50970704824519,0.49598762448032485,0.505730065522607,0.479848119133343,0.046684128940826866,0.3336975559082573,0.00236880067282907
0.6365,0.62525,0.6857500000000001,0.59575,0.7515000000000001,0.5495,0.9472499999999999,0.8545,0.8415,0.80325,0.78675,0.80525,0.4960601372909214,0.507019240065745,0.4957797544232814,0.508450120751538,0.4858198140497817,0.0456739452341663,0.3331123547123557,0.0019767973663972396
0.6367499999999999,0.6255,0.6865000000000001,0.5965,0.7517499999999999,0.55025,0.9470000000000001,0.8540000000000001,0.84175,0.804,0.7872499999999999,0.8055,0.49465822295272166,0.5037368268394083,0.494957942569854,0.509803244625461,0.49246116688595204,0.047189217659432854,0.3336980192202453,0.0014777387489948463
0.637,0.62575,0.6872499999999999,0.5972500000000001,0.752,0.551,0.94675,0.8534999999999999,0.8420000000000001,0.80475,0.7877500000000001,0.8057500000000001,0.49285023687518126,0.49985980856618,0.49406845209320316,0.5095616153800957,0.49857783922003923,0.047189217659432854,0.3336980192202453,0.0014777387489948463
0.63725,0.626,0.688,0.598,0.75225,0.55175,0.9465,0.853,0.8422499999999999,0.8055,0.78825,0.8059999999999999,0.49052499274871897,0.4952721647491057,0.4929034129362854,0.5075250258489141,0.503624439004406,0.047189217659432854,0.33340557305962376,0.002072023268202769
0.6375,0.62625,0.68875,0.59875,0.7525,0.5525,0.94625,0.8525,0.8425,0.80625,0.78875,0.80625,0.4877888426955429,0.4897611911437687,0.49183505752682977,0.5043148083887101,0.5105764580054764,0.04693345237093506,0.3336984825322332,0.002171878150596871
0.6375,0.62625,0.68875,0.59875,0.7525,0.5525,0.94625,0.8525,0.8425,0.80625,0.78875,0.80625,0.48529923619839505,0.4857923233104515,0.49061684230880787,0.5003866067979832,0.5170935448615768,0.04693345237093506,0.3336984825322332,0.002171878150596871
0.6375,0.62625,0.68875,0.59875,0.7525,0.5525,0.94625,0.8525,0.8425,0.80625,0.78875,0.80625,0.48394566373392633,0.4820361597215508,0.4896451706468143,0.49600966531126256,0.525674835617163,0.04592004930244188,0.3325270008960345,0.0013776917720142476
0.6375,0.62625,0.68875,0.59875,0.7525,0.5525,0.94625,0.8525,0.8425,0.80625,0.78875,0.80625,0.48341873731025814,0.4789567823648845,0.4888910374166103,0.4909354508346648,0.5359751464303906,0.04693345237093506,0.3347235103405821,0.0020700717618350128
0.63825,0.62625,0.6890000000000001,0.599,0.75275,0.5525,0.946,0.85225,0.8425,0.8065000000000001,0.789,0.80675,0.48447259015759453,0.47749202359083437,0.48885236391762543,0.48552295528498496,0.5461304790161531,0.04566589526222255,0.33443029199331403,0.0017720681950102416
0.639,0.62625,0.6892499999999999,0.59925,0.753,0.5525,0.94575,0.852,0.8425,0.80675,0.78925,0.8072499999999999,0.5100744464855458,0.47422894711399016,0.487228076960263,0.47796341135421794,0.5458267165917956,0.04566589526222255,0.33443029199331403,0.0017720681950102416
0.63975,0.62625,0.6895,0.5995,0.75325,0.5525,0.9455,0.85175,0.8425,0.807,0.7895,0.8077500000000001,0.49032679106642174,0.4745093299816301,0.46486029198491735,0.47151536217348106,0.527373144453177,0.04566589526222255,0.33443029199331403,0.0017720681950102416
0.6405,0.62625,0.68975,0.59975,0.7535,0.5525,0.94525,0.8515,0.8425,0.8072499999999999,0.78975,0.80825,0.4764671758677366,0.4809001256888717,0.47706178091462825,0.46590956286039215,0.48430100327768844,0.04642514115577216,0.3341378458326925,0.0017745311220304873
0.64125,0.62625,0.69,0.6,0.75375,0.5525,0.945,0.85125,0.8425,0.8075,0.79,0.80875,0.46219665474233784,0.48698636759160785,0.4890747365367882,0.4616845021539481,0.43926821274520556,0.046170987115552835,0.3328206825552905,0.0012803048061101993
0.64125,0.62625,0.69,0.6,0.75375,0.5525,0.945,0.85125,0.8425,0.8075,0.79,0.80875,0.4540365464565407,0.4905926713719424,0.5302765155177415,0.4751674147903626,0.3649568574630867,0.046170987115552835,0.3328206825552905,0.0012803048061101993
0.64125,0.62625,0.69,0.6,0.75375,0.5525,0.945,0.85125,0.8425,0.8075,0.79,0.80875,0.4338779851107029,0.502779657739534,0.5561877598375713,0.49114256113437277,0.3014221675284325,0.04566589526222255,0.3338452470516515,0.002169725194386733
0.64125,0.62625,0.69,0.6,0.75375,0.5525,0.945,0.85125,0.8425,0.8075,0.79,0.80875,0.45767185536111377,0.5084791646524219,0.6089190757033742,0.5032999646565801,0.255153615860941,0.04566589526222255,0.3338452470516515,0.002169725194386733
0.64,0.6235,0.6890000000000001,0.59625,0.75075,0.5429999999999999,0.94525,0.851,0.8415,0.8075,0.7895,0.80975,0.4756453640143092,0.5113023300783138,0.6183699120177898,0.5116603375503918,0.23571281379162506,0.046421921793939495,0.3334061926258508,0.002268438735568556
0.63875,0.62075,0.688,0.5925,0.74775,0.5335,0.9455,0.85075,0.8405,0.8075,0.789,0.8107500000000001,0.49466305714009473,0.5147297689258435,0.6237745335009185,0.5146910591331799,0.217245432876215,0.04616776461899593,0.3341378458326925,0.0025659552054060207
0.6375,0.618,0.687,0.58875,0.7447499999999999,0.524,0.94575,0.8504999999999999,0.8395,0.8075,0.7885,0.81175,0.5012520545296336,0.5222227593541525,0.5967320893357827,0.5020918192395702,0.22156024285756437,0.18990795393120177,0.26788359018489943,0.16850262148800413
0.63625,0.61525,0.6859999999999999,0.585,0.74175,0.5145000000000001,0.946,0.8502500000000001,0.8384999999999999,0.8075,0.7879999999999999,0.8127500000000001,0.4955960553031035,0.5219278739243933,0.6526152953688484,0.4787159131346915,0.21389714397939752,0.18990795393120177,0.26788359018489943,0.16850262148800413
0.635,0.6125,0.685,0.58125,0.73875,0.505,0.94625,0.85,0.8375,0.8075,0.7875,0.81375,0.5044184472590157,0.509943923426472,0.6618389248767282,0.4705419404796975,0.24124957526738722,0.20858020867439458,0.3056640682701079,0.19730347885254587
0.635,0.6125,0.685,0.58125,0.73875,0.505,0.94625,0.85,0.8375,0.8075,0.7875,0.81375,0.519085371749009,0.5144638886203229,0.6633665280866287,0.4705005183063816,0.3008215453405044,0.22961850001167528,0.32721313398713064,0.280295358549105
0.635,0.6125,0.685,0.58125,0.73875,0.505,0.94625,0.85,0.8375,0.8075,0.7875,0.81375,0.512675239292275,0.510649714782945,0.6558058590350961,0.47268208541717505,0.36371419107587805,0.25464625776004524,0.32839589863291857,0.3044746627745543
0.63025,0.607,0.68125,0.57675,0.7332500000000001,0.49024999999999996,0.9415,0.845,0.83825,0.7979999999999999,0.7835,0.802,0.5103016532920815,0.4972928550710626,0.6465193850913662,0.47253020398904516,0.4297204015529406,0.2819630256575646,0.32035419064094234,0.3231245923080855
0.6255,0.6015,0.6775,0.57225,0.72775,0.4755,0.93675,0.84,0.8390000000000001,0.7885,0.7795000000000001,0.79025,0.5080634245383351,0.48621289761191144,0.5712462535047859,0.4852260962502494,0.5010148418695518,0.3252658372359684,0.2937194037393471,0.3350795901695925
0.62075,0.596,0.67375,0.56775,0.72225,0.46075000000000005,0.932,0.835,0.83975,0.779,0.7755,0.7785,0.49534467755970224,0.4949531083824809,0.5389490476650876,0.49015533309324755,0.5281256456937727,0.4166843185602985,0.22859320376765746,0.3634118758244561
0.616,0.5905,0.67,0.56325,0.71675,0.446,0.9272499999999999,0.83,0.8405,0.7695000000000001,0.7715000000000001,0.7667499999999999,0.4771487962873441,0.4851977182635599,0.5278110799574591,0.49204004135826257,0.5148084211027686,0.4166843185602985,0.22859320376765746,0.3634118758244561
0.61125,0.585,0.66625,0.55875,0.71125,0.43125,0.9225,0.825,0.84125,0.76,0.7675,0.755,0.48269844339166584,0.48526539688678333,0.5333462244996616,0.49721781134913184,0.5005453909678818,0.469825126867072,0.2104550990471275,0.38982667643493424
0.61125,0.585,0.66625,0.55875,0.71125,0.43125,0.9225,0.825,0.84125,0.76,0.7675,0.755,0.48943246640239774,0.49300976505849364,0.542081601082858,0.502464618421499,0.4915429753324593,0.3019841553919438,0.7960363652162162,0.9066858921248867
0.61125,0.585,0.66625,0.55875,0.71125,0.43125,0.9225,0.825,0.84125,0.76,0.7675,0.755,0.4949869476940926,0.5002658803055207,0.5498694769409262,0.5048947184912064,0.4875043149188207,0.4819260998594694,0.13274168804303393,0.48692060079986876
0.61125,0.585,0.66625,0.55875,0.71125,0.43125,0.9225,0.825,0.84125,0.76,0.7675,0.755,0.4970559798897805,0.5019965193850914,0.5549550420574302,0.5033620985644073,0.4913634795360251,0.47837436007699424,0.19759955951421274,0.5144475342664654
0.6114999999999999,0.585,0.66625,0.5575,0.71,0.42975,0.92025,0.823,0.8377500000000001,0.7585,0.7647499999999999,0.7497499999999999,0.4981871797350865,0.5029440201102194,0.5554287924199942,0.5013255090332257,0.4989782533101502,0.47837436007699424,0.19759955951421274,0.5144475342664654
0.61175,0.585,0.66625,0.55625,0.70875,0.42825,0.9179999999999999,0.821,0.8342499999999999,0.757,0.762,0.7445,0.4955090399303877,0.5013052305907377,0.551696799767959,0.49929582324258653,0.5029064548468893,0.514094643526412,0.3488238710720255,0.5287114560450209
0.612,0.585,0.66625,0.555,0.7075,0.42674999999999996,0.9157500000000001,0.8190000000000001,0.83075,0.7555,0.75925,0.73925,0.49371555641496667,0.49974378806922554,0.549811466692449,0.4981221953810488,0.5030031065126428,0.514094643526412,0.3488238710720255,0.5287114560450209
0.61225,0.585,0.66625,0.55375,0.70625,0.42524999999999996,0.9135,0.8170000000000001,0.8272499999999999,0.754,0.7565000000000001,0.7340000000000001,0.4931016146185826,0.4986705984723968,0.548873634342067,0.49807386953467514,0.5017328269448608,0.5156598333010682,0.3409157913419264,0.509194774531792
0.6125,0.585,0.66625,0.5525,0.705,0.42375,0.91125,0.815,0.82375,0.7525,0.75375,0.72875,0.49353185729478877,0.49861742241129264,0.5487044377840085,0.49846047638664615,0.5003175698244607,0.47360042578082134,0.29391084243586346,0.45251734036897145
0.6145,0.588,0.6685,0.5545,0.7075,0.43125,0.9135,0.8165,0.82625,0.75625,0.7555,0.73425,0.4939814367204873,0.4985932514744271,0.5485690805375616,0.4990749051108731,0.49920607521614846,0.4426820007514373,0.27633768945199655,0.42214721367968516
0.6164999999999999,0.591,0.6707500000000001,0.5565,0.71,0.43875,0.9157500000000001,0.818,0.82875,0.76,0.75725,0.7397499999999999,0.49451803151890167,0.4990960069612298,0.5490186599632602,0.4996686227214482,0.49863997237203755,0.4123346880033848,0.26753928941982125,0.3933564038599132
0.6185,0.594,0.6729999999999999,0.5585,0.7125,0.44625,0.9179999999999999,0.8195,0.83125,0.76375,0.759,0.7452500000000001,0.4946195494537368,0.49903799671275256,0.5490524992748719,0.5001656886527729,0.49949603036862367,0.38706243430029347,0.26416047864147363,0.36712639824168297
0.6204999999999999,0.597,0.67525,0.5605,0.715,0.45375,0.92025,0.821,0.83375,0.7675,0.76075,0.75075,0.4947259015759451,0.4990476650874988,0.5493183795803925,0.5006489471839942,0.5008077321097216,0.34765730440614373,0.27424249816312246,0.32520948591358617
0.6225,0.6,0.6775,0.5625,0.7175,0.46125,0.9225,0.8225,0.83625,0.77125,0.7625,0.75625,0.49487092719713816,0.49932804795513874,0.5499854974378807,0.5012150500213567,0.5025198480219122,0.3315024526882099,0.2831643226919812,0.3060606942230252
0.6225,0.6,0.6775,0.5625,0.7175,0.46125,0.9225,0.8225,0.83625,0.77125,0.7625,0.75625,0.4949966160688388,0.4995794256985401,0.5506187759837571,0.5015533309864633,0.5039282014220151,0.3315024526882099,0.2831643226919812,0.3060606942230252
0.6225,0.6,0.6775,0.5625,0.7175,0.46125,0.9225,0.8225,0.83625,0.77125,0.7625,0.75625,0.49507396306680845,0.4999468239388959,0.5514405878371845,0.5019192267247824,0.5059647909059574,0.21294433419636577,0.3220621839253822,0.21012779951805494
0.6225,0.6,0.6775,0.5625,0.7175,0.46125,0.9225,0.8225,0.83625,0.77125,0.7625,0.75625,0.4948950981340037,0.5001450256211931,0.5519530116987335,0.5019606488711045,0.5085122536740883,0.14773287508512775,0.34750879360702425,0.14797827476586228
0.623,0.60125,0.6779999999999999,0.56275,0.7184999999999999,0.46325000000000005,0.925,0.82475,0.8377500000000001,0.77375,0.7655,0.7617499999999999,0.49497727931934643,0.5001643623706855,0.5528328338006381,0.5015947531260367,0.5114325157321237,0.1431806190856628,0.3513133644824826,0.14374157003353694
0.6235,0.6025,0.6785,0.563,0.7195,0.46525,0.9275,0.8270000000000001,0.8392499999999999,0.77625,0.7685,0.76725,0.4947935801991685,0.5001208546843275,0.5527264816784299,0.5009043837957204,0.5145805999323537,0.1431806190856628,0.3513133644824826,0.14374157003353694
0.624,0.60375,0.679,0.56325,0.7204999999999999,0.46725,0.93,0.8292499999999999,0.84075,0.77875,0.7715000000000001,0.77275,0.4940926230300686,0.4997727931934642,0.5520158561345838,0.5003175698717001,0.5176872621212313,0.13559781510094052,0.35409182830519664,0.13843373840248116
0.6245,0.605,0.6795,0.5635,0.7215,0.46924999999999994,0.9325,0.8315,0.8422499999999999,0.78125,0.7745000000000001,0.77825,0.49328047955138743,0.499622933384898,0.5509088272261433,0.49957887470850704,0.5196893330576761,0.13559781510094052,0.35409182830519664,0.13843373840248116
0.625,0.60625,0.68,0.56375,0.7225,0.47125,0.935,0.83375,0.84375,0.78375,0.7775,0.78375,0.4925311805085565,0.49987431112829933,0.5498501401914339,0.49890231275130015,0.5204694505561483,0.1345844120324473,0.35321371945359537,0.13686286246846754
0.625,0.60625,0.68,0.56375,0.7225,0.47125,0.935,0.83375,0.84375,0.78375,0.7775,0.78375,0.4915353379096974,0.5001788649328048,0.548017983177028,0.4985018985599621,0.5201794956128758,0.1358535803894383,0.3548236359493677,0.13726195768250815
0.62475,0.60625,0.67975,0.5645,0.723,0.469,0.93625,0.83325,0.8445,0.7855,0.77875,0.78525,0.49071836024364307,0.5003335589287441,0.5466692448999323,0.4983638247208927,0.5191922674097872,0.14370342213115905,0.3554110010847896,0.14260787144166098
0.6245,0.60625,0.6795,0.56525,0.7234999999999999,0.46675,0.9375,0.8327500000000001,0.8452500000000001,0.7872499999999999,0.78,0.78675,0.4904089722517645,0.5005994392342648,0.5460504689161751,0.49776320339676905,0.5174180179676839,0.1502921454878326,0.35380293783696903,0.14538227546817506
0.62425,0.60625,0.67925,0.5660000000000001,0.7240000000000001,0.4645,0.93875,0.8322499999999999,0.846,0.789,0.78125,0.78825,0.49016726288310936,0.5004592478004447,0.545852267233878,0.4970659303529042,0.5155195024915228,0.16066099836836664,0.34575334809046815,0.15280436123965285
0.624,0.60625,0.679,0.56675,0.7245,0.46225,0.94,0.83175,0.84675,0.7907500000000001,0.7825,0.78975,0.4902059363820942,0.49987914531567246,0.5460069612298173,0.49666551615481763,0.5137866752767232,0.16066099836836664,0.34575334809046815,0.15280436123965285
0.62375,0.60625,0.67875,0.5675,0.725,0.46,0.94125,0.83125,0.8475,0.7925,0.78375,0.79125,0.49019626800734795,0.4992603693319153,0.546321183409069,0.4965826718081858,0.5120262335316559,0.16495910032761224,0.3434125487575909,0.1560683607304475
0.62375,0.60625,0.67875,0.5675,0.725,0.46,0.94125,0.83125,0.8475,0.7925,0.78375,0.79125,0.49001740307454317,0.498540075413323,0.5465967320893358,0.4967345530473585,0.5099206071349274,0.19023940400264733,0.33273342364731445,0.17604402855822326
0.62375,0.60625,0.67875,0.5675,0.725,0.46,0.94125,0.83125,0.8475,0.7925,0.78375,0.79125,0.48981436720487287,0.49807115923813206,0.5464952141545006,0.49747324823754535,0.5081670691304025,0.1927664682481286,0.3300987882178518,0.17683493623147656
0.62375,0.60625,0.67875,0.5675,0.725,0.46,0.94125,0.83125,0.8475,0.7925,0.78375,0.79125,0.4896016629604564,0.49749105675335975,0.5459296142318476,0.4986882982589021,0.5061097685125631,0.19301740292651529,0.3293671331941004,0.17989964819136323
0.62375,0.60575,0.67875,0.5685,0.7254999999999999,0.45925,0.941,0.8322499999999999,0.8465,0.7927500000000001,0.78375,0.7915000000000001,0.4892681040317123,0.49727835250894326,0.5453446775597022,0.5002278218722559,0.5036244390313999,0.19301740292651529,0.3293671331941004,0.17989964819136323
0.62375,0.60525,0.67875,0.5695,0.726,0.4585,0.94075,0.83325,0.8454999999999999,0.7929999999999999,0.78375,0.79175,0.4890747365367882,0.4973943730058977,0.5450932998163008,0.5020780116505097,0.5007248878710653,0.193250626412736,0.3260014641240231,0.18434729336126815
0.62375,0.60475,0.67875,0.5705,0.7265,0.45775,0.9405,0.8342499999999999,0.8445,0.79325,0.78375,0.792,0.48906023397466886,0.49767475587353766,0.5449241032582423,0.5039696236290734,0.4976044185250295,0.1947642875897241,0.3254161103077019,0.18770129290795734
0.62375,0.60425,0.67875,0.5715,0.727,0.457,0.94025,0.83525,0.8434999999999999,0.7935,0.78375,0.7922499999999999,0.4891375809726385,0.49792129942956587,0.5451078023784202,0.5059233688946048,0.49439420119979494,0.1947642875897241,0.3254161103077019,0.18770129290795734
0.62375,0.60375,0.67875,0.5725,0.7275,0.45625,0.94,0.83625,0.8425,0.79375,0.78375,0.7925,0.4893261142801895,0.4983370395436527,0.5456250604273422,0.5074490851888369,0.4918812568914313,0.19144577129346968,0.32468476415860903,0.19333280578837775
0.62375,0.60375,0.67875,0.5725,0.7275,0.45625,0.94,0.83625,0.8425,0.79375,0.78375,0.7925,0.4895823262109639,0.49882529246833607,0.5458812723581166,0.5085260613711243,0.48912668314874524,0.19396961304239405,0.3229279287060891,0.19500895766370158
0.62375,0.60375,0.67875,0.5725,0.7275,0.45625,0.94,0.83625,0.8425,0.79375,0.78375,0.7925,0.489727351832157,0.49908150439911053,0.5458184279222663,0.509119779062681,0.48705557502282687,0.19396961304239405,0.3229279287060891,0.19500895766370158
0.62375,0.60375,0.67875,0.5725,0.7275,0.45625,0.94,0.83625,0.8425,0.79375,0.78375,0.7925,0.49016242869573623,0.49938122401624285,0.5457072416126849,0.5092647566422929,0.4851087333628685,0.20484033841442567,0.31224308396389855,0.2006493118845724
0.62375,0.60375,0.67875,0.5725,0.7275,0.45625,0.94,0.83625,0.8425,0.79375,0.78375,0.7925,0.49058300299719615,0.4997824615682104,0.5463598569080538,0.5088919571364373,0.4835415950572837,0.19933264666780082,0.33741641406594264,0.17397269196579904
0.62375,0.60275,0.6785,0.57125,0.727,0.45675,0.9395,0.835,0.8425,0.79425,0.78375,0.79325,0.4913951464758774,0.5004157401140868,0.5479454703664314,0.5077666550942794,0.4825750778598714,0.19706779270393115,0.34224601274975,0.16794106789055405
0.62375,0.60175,0.67825,0.57,0.7265,0.45725,0.9390000000000001,0.83375,0.8425,0.79475,0.78375,0.794,0.49211060620709657,0.5005269264236681,0.5500628444358503,0.5060200206548368,0.48371418727513876,0.19706779270393115,0.34224601274975,0.16794106789055405
0.62375,0.60075,0.6779999999999999,0.56875,0.726,0.45775,0.9384999999999999,0.8325,0.8425,0.79525,0.78375,0.79475,0.49281639756356954,0.5007492990428309,0.5527119791163105,0.503886779403914,0.4862961686919942,0.19706779270393115,0.34224601274975,0.16794106789055405
0.62375,0.59975,0.6777500000000001,0.5675,0.7254999999999999,0.45825000000000005,0.938,0.83125,0.8425,0.7957500000000001,0.78375,0.7955,0.492932418060524,0.5009813400367398,0.5551435753649812,0.5013255091546981,0.4954780809876553,0.19378147943017598,0.3568846657009961,0.16556100660811499
0.62375,0.59775,0.677,0.56575,0.72375,0.45575000000000004,0.9372499999999999,0.8292499999999999,0.8427500000000001,0.7965000000000001,0.784,0.7965000000000001,0.49284056850043506,0.5008169776660544,0.5559943923426472,0.4989092164850941,0.5055919915620651,0.19378147943017598,0.3568846657009961,0.16556100660811499
0.62375,0.59675,0.6765000000000001,0.56525,0.7225,0.45275,0.937,0.8284999999999999,0.843,0.79675,0.78425,0.79675,0.4924054916368558,0.5004012375519675,0.5558832060330658,0.497252330092335,0.5157956503316249,0.19529514374188836,0.3599609846246773,0.1682202387036936
0.62375,0.59575,0.6759999999999999,0.56475,0.72125,0.44975000000000004,0.93675,0.8277500000000001,0.84325,0.797,0.7845,0.797,0.4916948660930098,0.5004399110509523,0.5542202455767186,0.4961132207445524,0.5249637549302498,0.21297815160186778,0.36626625742688207,0.19021714011572866
0.62375,0.59475,0.6755,0.5642499999999999,0.72,0.44675,0.9365000000000001,0.8270000000000001,0.8434999999999999,0.7972499999999999,0.78475,0.7972499999999999,0.49067968674465823,0.5000773469979697,0.5513003964033646,0.49526406648850874,0.5319986182239643,0.21297815160186778,0.36626625742688207,0.19021714011572866
0.62375,0.59375,0.675,0.56375,0.71875,0.44375,0.93625,0.82625,0.84375,0.7975,0.785,0.7975,0.4896645073963067,0.4996132650101518,0.5475103935028521,0.49495340032360874,0.5317017593241982,0.22308479733551445,0.36627104861791054,0.2005792578578078
0.62375,0.59375,0.675,0.56375,0.71875,0.44375,0.93625,0.82625,0.84375,0.7975,0.785,0.7975,0.4887411776080441,0.49918785652131875,0.5439524315962487,0.49467034890492756,0.5298584733404745,0.24202730919753837,0.35705848037287236,0.2307123722588619
0.62375,0.59375,0.675,0.56375,0.71875,0.44375,0.93625,0.82625,0.84375,0.7975,0.785,0.7975,0.4877550033839312,0.49881078990621674,0.5400560765735279,0.49448394920598754,0.5254332058859077,0.2402578827320525,0.3535435721522881,0.22815404408169862
0.62375,0.59375,0.675,0.56375,0.71875,0.44375,0.93625,0.82625,0.84375,0.7975,0.785,0.7975,0.48694285990524994,0.4982500241709369,0.5370057043411003,0.4944494307192263,0.5188263715904864,0.2402578827320525,0.3535435721522881,0.22815404408169862
0.62375,0.59375,0.675,0.56375,0.71875,0.44375,0.93625,0.82625,0.84375,0.7975,0.785,0.7975,0.48635308904573143,0.4979938122401624,0.5345644397176834,0.49463583041816633,0.5106247841892736,0.22735069313753653,0.34475490893949906,0.22156085705374778
0.624,0.59475,0.675,0.56375,0.7190000000000001,0.44575000000000004,0.937,0.8272499999999999,0.84375,0.7975,0.785,0.7977500000000001,0.48616938992555353,0.4977134293725225,0.5336217731799284,0.4952364516883022,0.500172592703745,0.22735069313753653,0.34475490893949906,0.22156085705374778
0.62425,0.59575,0.675,0.56375,0.71925,0.44775,0.9377500000000001,0.82825,0.84375,0.7975,0.785,0.7979999999999999,0.48646910954268585,0.4977762738083728,0.5336217731799284,0.496244390924061,0.48869175057187303,0.22481879828194415,0.3410933906368259,0.21899993871808485
0.6245,0.59675,0.675,0.56375,0.7195,0.44975000000000004,0.9384999999999999,0.8292499999999999,0.84375,0.7975,0.785,0.79825,0.48678333172193755,0.4978101131199845,0.5339891714202842,0.497148774699536,0.4791025206075219,0.22457269421366857,0.3355290463657709,0.2173285773574337
0.62475,0.59775,0.675,0.56375,0.7197499999999999,0.45175,0.9392499999999999,0.83025,0.84375,0.7975,0.785,0.7985,0.48755680170163396,0.49801798317702795,0.5370008701537271,0.4983085951474735,0.4707214367620217,0.2420514653828182,0.2968784974377248,0.21460720952363155
0.625,0.59875,0.675,0.56375,0.72,0.45375,0.94,0.83125,0.84375,0.7975,0.785,0.79875,0.48920042540848885,0.4984627284153534,0.5447742434496761,0.49930272696963207,0.4651363491024623,0.24129382760282278,0.29351174185561296,0.21352514134135697
0.625,0.59875,0.675,0.56375,0.72,0.45375,0.94,0.83125,0.84375,0.7975,0.785,0.79875,0.4906845209320313,0.4987527796577395,0.5517983177027942,0.4997652744276925,0.46522609708166107,0.24078873574949253,0.29072941528275614,0.213133203521716
0.625,0.59875,0.675,0.56375,0.72,0.45375,0.94,0.83125,0.84375,0.7975,0.785,0.79875,0.49225079764091656,0.4997727931934642,0.5588175577685391,0.49861926135286433,0.4748498455327735,0.24661660509906227,0.2854590615456159,0.2120485776124954
0.62475,0.59775,0.67425,0.56275,0.72,0.45049999999999996,0.93875,0.8284999999999999,0.8434999999999999,0.7977500000000001,0.7845,0.7985,0.49335299236198393,0.5006526152953689,0.5651116697283187,0.496624093914017,0.4876838113091204,0.24661660509906227,0.2854590615456159,0.2120485776124954
0.6245,0.59675,0.6735,0.56175,0.72,0.44725000000000004,0.9375,0.82575,0.84325,0.7979999999999999,0.784,0.79825,0.4938412452866673,0.5011021947210674,0.5679928454026878,0.49364169838005667,0.5035208837060856,0.24990613459992575,0.28384914504984354,0.21116007715770957
0.62425,0.59575,0.6727500000000001,0.5607500000000001,0.72,0.444,0.93625,0.823,0.843,0.79825,0.7835,0.7979999999999999,0.49335782654935706,0.501131199845306,0.5654839021560476,0.49026579237505535,0.5201449769101635,0.24839408467121613,0.28428850835030284,0.21233758578899023
0.624,0.59475,0.672,0.55975,0.72,0.44075000000000003,0.935,0.82025,0.8427500000000001,0.7985,0.7829999999999999,0.7977500000000001,0.49255051725804894,0.5009281639756357,0.5616262206323117,0.48660683480290645,0.5349741100983638,0.2668057435158001,0.32587958581754256,0.24544646362479267
0.62375,0.59375,0.67125,0.55875,0.72,0.4375,0.93375,0.8175,0.8425,0.79875,0.7825,0.7975,0.49125012085468434,0.49988397950304553,0.5573141254955042,0.48420434939843626,0.5420987217491914,0.269818574039443,0.33730319333445286,0.25510546341440044
0.62375,0.59375,0.67125,0.55875,0.72,0.4375,0.93375,0.8175,0.8425,0.79875,0.7825,0.7975,0.48980953301749974,0.49911534371072225,0.5524315962486706,0.4824024854260653,0.5454815317241832,0.269818574039443,0.33730319333445286,0.25510546341440044
0.62375,0.59375,0.67125,0.55875,0.72,0.4375,0.93375,0.8175,0.8425,0.79875,0.7825,0.7975,0.4885574784878662,0.49857391472493473,0.5482210190466983,0.4813393167248629,0.5457024496939333,0.28421204926383464,0.3702511347927775,0.278377038392215
0.62375,0.59375,0.67125,0.55875,0.72,0.4375,0.93375,0.8175,0.8425,0.79875,0.7825,0.7975,0.487653485449096,0.4977956105578652,0.54406361790583,0.4812081465183604,0.5435346898482738,0.28421204926383464,0.3702511347927775,0.278377038392215
0.62375,0.59525,0.67325,0.55925,0.7204999999999999,0.4415,0.934,0.82,0.8425,0.79825,0.7827500000000001,0.797,0.4870588804022044,0.4972493473847046,0.5419897515227691,0.4819123233027678,0.5398205029186568,0.2910404379651184,0.3725944069398336,0.2806512904837611
0.62375,0.59675,0.67525,0.55975,0.721,0.44549999999999995,0.93425,0.8225,0.8425,0.7977500000000001,0.7829999999999999,0.7965000000000001,0.4862709078603887,0.49680460214637917,0.5397031808952915,0.48306524019912006,0.5344839479750663,0.29585812360802766,0.36878859874883085,0.28204333446559793
0.62375,0.5982500000000001,0.6772499999999999,0.56025,0.7215,0.4495,0.9345,0.825,0.8425,0.7972499999999999,0.78325,0.7959999999999999,0.48585033355892876,0.495900609107609,0.5390892390989075,0.48506040761097347,0.5287055564441223,0.29789942471007164,0.35268153750130443,0.27901044035449934
0.62375,0.59975,0.67925,0.5607500000000001,0.722,0.4535,0.93475,0.8275,0.8425,0.79675,0.7835,0.7955,0.485768152373586,0.4951223049405395,0.539350285217055,0.48775975169925867,0.5233275797051303,0.2935980971195448,0.3440418027474539,0.2741855395034653
0.62375,0.60125,0.68125,0.56125,0.7225,0.4575,0.935,0.83,0.8425,0.79625,0.78375,0.795,0.4855216088175578,0.49490476650874987,0.5412936285410422,0.49037625149489983,0.5188885049854297,0.2935980971195448,0.3440418027474539,0.2741855395034653
0.62375,0.60125,0.68125,0.56125,0.7225,0.4575,0.935,0.83,0.8425,0.79625,0.78375,0.795,0.48526539688678333,0.49499178188146575,0.5434690128589384,0.49273731467206633,0.5155540209782841,0.27238428630053735,0.28092623690147056,0.2409094614169111
0.62375,0.60125,0.68125,0.56125,0.7225,0.4575,0.935,0.83,0.8425,0.79625,0.78375,0.795,0.4853282413226337,0.49525766218698636,0.5465677269650971,0.49469796359715856,0.5142285118640767,0.27238428630053735,0.28092623690147056,0.2409094614169111
0.62375,0.60125,0.68125,0.56125,0.7225,0.4575,0.935,0.83,0.8425,0.79625,0.78375,0.795,0.48571981049985496,0.49608914241516,0.5493328821425119,0.49595443584581894,0.5146358299646691,0.27643950668806433,0.2782917540924275,0.24239120858119054
0.62375,0.60125,0.68125,0.56125,0.7225,0.4575,0.935,0.83,0.8425,0.79625,0.78375,0.795,0.48586000193367496,0.4969061200812144,0.5517016339553321,0.49642388696344014,0.5156437693893849,0.2842732453511733,0.2746330192955017,0.2471392497686798
0.6232500000000001,0.60175,0.68175,0.56175,0.72275,0.45899999999999996,0.93625,0.82975,0.8422499999999999,0.7959999999999999,0.7835,0.795,0.4857343130619743,0.4975393986270908,0.5512713912791259,0.4954711773011006,0.5179841216688507,0.2860442830649377,0.2722920655252951,0.2501050567164818
0.62275,0.6022500000000001,0.6822499999999999,0.56225,0.723,0.46049999999999996,0.9375,0.8295,0.8420000000000001,0.7957500000000001,0.78325,0.795,0.4856134583776467,0.497737600309388,0.548868800154694,0.4942147050524402,0.5198136001714894,0.2890780472773034,0.2752205388682529,0.25267515318180533
0.62225,0.60275,0.6827500000000001,0.56275,0.7232500000000001,0.462,0.93875,0.8292499999999999,0.84175,0.7955,0.7829999999999999,0.795,0.48496567726965095,0.4974427148796287,0.5448709271971381,0.49291681068445165,0.5201933030939607,0.2890780472773034,0.2752205388682529,0.25267515318180533
0.62175,0.6032500000000001,0.68325,0.56325,0.7234999999999999,0.4635,0.94,0.8290000000000001,0.8415,0.79525,0.7827500000000001,0.795,0.4841100261046118,0.49673208933578267,0.5407183602436431,0.49180531612337863,0.519157748923026,0.3042484827221349,0.28254589203353897,0.2675923506044633
0.62125,0.60375,0.68375,0.56375,0.72375,0.465,0.94125,0.82875,0.84125,0.795,0.7825,0.795,0.4833510586870347,0.49573141254955044,0.5362564052982693,0.4909492581267925,0.5165964785658346,0.3042484827221349,0.28254589203353897,0.2675923506044633
0.62125,0.60375,0.68375,0.56375,0.72375,0.465,0.94125,0.82875,0.84125,0.795,0.7825,0.795,0.48265010151793486,0.49490476650874987,0.5339118244223147,0.49166724217633373,0.511239212346629,0.3090452346763212,0.28606126538302085,0.27094653663258556
0.62025,0.603,0.68325,0.564,0.7240000000000001,0.46475,0.94175,0.8290000000000001,0.841,0.79425,0.7825,0.79525,0.4820168229720584,0.49413129652905347,0.5346852944020111,0.4933241286230806,0.5051087328553835,0.3229513355089971,0.2923595830546769,0.2829019149411633
0.61925,0.6022500000000001,0.6827500000000001,0.5642499999999999,0.72425,0.4645,0.9422499999999999,0.8292499999999999,0.84075,0.7935,0.7825,0.7955,0.48224886396596733,0.49342067098520737,0.5386686647974476,0.49556782896685403,0.4997307559004404,0.4152334584494789,0.24392393763124404,0.34291377496072545
0.6182500000000001,0.6015,0.6822499999999999,0.5645,0.7245,0.46425,0.9427500000000001,0.8295,0.8405,0.7927500000000001,0.7825,0.7957500000000001,0.48247607077250315,0.493309484675626,0.5445857101421251,0.4982740766877062,0.49599585785717154,0.4152334584494789,0.24392393763124404,0.34291377496072545
0.61725,0.60075,0.68175,0.56475,0.7247499999999999,0.46399999999999997,0.94325,0.82975,0.84025,0.792,0.7825,0.7959999999999999,0.48285797157497823,0.493261142801895,0.5526491346804602,0.5008905764293595,0.4959682431109528,0.4660224555409344,0.21041305757226686,0.38324109211156093
0.61625,0.6,0.68125,0.565,0.725,0.46375,0.94375,0.83,0.84,0.79125,0.7825,0.79625,0.48321570144058784,0.49355119404428116,0.5645073963066809,0.5028167068676905,0.5073800485392411,0.4660224555409344,0.21041305757226686,0.38324109211156093
0.61625,0.6,0.68125,0.565,0.725,0.46375,0.94375,0.83,0.84,0.79125,0.7825,0.79625,0.48356859711882433,0.4940829546553224,0.5745963453543459,0.5039903347157313,0.5200621335353115,0.48446953990457453,0.19973238627178744,0.3990504834440094
0.61625,0.6,0.68125,0.565,0.725,0.46375,0.94375,0.83,0.84,0.79125,0.7825,0.79625,0.48342357149763127,0.4953930194334332,0.5840278449192691,0.5046047634129643,0.5386123576096224,0.5312210309353933,0.18349556314634619,0.43787457438684557
0.6154999999999999,0.59925,0.6807500000000001,0.5645,0.726,0.46575000000000005,0.9442499999999999,0.8292499999999999,0.84075,0.79175,0.7829999999999999,0.7965000000000001,0.4834815817461085,0.4958425988591318,0.5923329788262593,0.5049154295778643,0.5648671035452328,0.5534482448228939,0.1817461461363629,0.4612845572563618
0.61475,0.5985,0.68025,0.564,0.727,0.46775,0.94475,0.8284999999999999,0.8415,0.7922499999999999,0.7835,0.79675,0.48223919559122114,0.49667407908730543,0.5998066325050759,0.5057991024286448,0.5940006885557461,0.5726400832497504,0.18219308413359792,0.4832085924517273
0.614,0.59775,0.67975,0.5635,0.728,0.46975,0.94525,0.8277500000000001,0.8422499999999999,0.7927500000000001,0.784,0.797,0.4816445905443295,0.49853524122594994,0.604002707144929,0.5067656195180814,0.6165826677375077,0.5726400832497504,0.18219308413359792,0.4832085924517273
0.6132500000000001,0.597,0.67925,0.563,0.7290000000000001,0.47174999999999995,0.94575,0.8270000000000001,0.843,0.79325,0.7845,0.7972499999999999,0.47924199941989754,0.49785845499371556,0.6078458861065454,0.5067863306317333,0.6402899490694028,0.6322713883279727,0.18953405000442344,0.5453335521731412
0.6125,0.59625,0.67875,0.5625,0.73,0.47375,0.94625,0.82625,0.84375,0.79375,0.785,0.7975,0.47689258435656967,0.4982065164845789,0.6082809629701247,0.5088850533958948,0.6582671659179555,0.6322713883279727,0.18953405000442344,0.5453335521731412
0.6125,0.59625,0.67875,0.5625,0.73,0.47375,0.94625,0.82625,0.84375,0.79375,0.785,0.7975,0.4750265880305521,0.49525766218698636,0.6076863579232331,0.5116051085978319,0.6667448997016006,0.6456562942287065,0.1968603316105952,0.5626159528609166
0.6125,0.59625,0.67875,0.5625,0.73,0.47375,0.94625,0.82625,0.84375,0.79375,0.785,0.7975,0.4717925166779464,0.49653388765348544,0.601696799767959,0.515443561993409,0.6665861151807815,0.6009090612631485,0.2429792880936225,0.5784334689212184
0.6125,0.59625,0.67875,0.5625,0.73,0.47375,0.94625,0.82625,0.84375,0.79375,0.785,0.7975,0.46470076380160497,0.49655805859035096,0.5877405008218118,0.5220020703749719,0.6584190469141833,0.5624754670600463,0.2549755764813009,0.5563088663959461
0.6125,0.59625,0.67875,0.5625,0.73,0.47375,0.94625,0.82625,0.84375,0.79375,0.785,0.7975,0.4594169970028038,0.4991201778980953,0.5741370975539012,0.5295063847323198,0.6491266764974515,0.467666279874083,0.278226605159281,0.4927921059293474
0.61425,0.60175,0.6795,0.56675,0.73125,0.48625,0.94575,0.82875,0.845,0.7945,0.78475,0.7975,0.4636807502658803,0.4939524315962487,0.5527506526152953,0.5345391770356016,0.6169623697961747,0.41332071239004126,0.29153248212758565,0.45130944399567846
0.616,0.6072500000000001,0.68025,0.5710000000000001,0.7325,0.49875,0.94525,0.83125,0.84625,0.79525,0.7845,0.7975,0.4483853814173837,0.49709465338876535,0.5390408972251765,0.5312875374830633,0.5825474599823618,0.35440839394147705,0.30527555663991957,0.4036947810810947
0.61775,0.61275,0.6809999999999999,0.57525,0.73375,0.51125,0.94475,0.83375,0.8475,0.7959999999999999,0.78425,0.7975,0.44899448902639466,0.4952818331238519,0.5236343420670985,0.5250535024235586,0.5416154623946565,0.18832826919148815,0.3362559083815842,0.2583807752805542
0.6195,0.6182500000000001,0.68175,0.5795,0.735,0.52375,0.9442499999999999,0.83625,0.84875,0.79675,0.784,0.7975,0.4539398627090786,0.4945953785168713,0.5140143091946244,0.5171418701275818,0.4999309633504042,0.18832826919148815,0.3362559083815842,0.2583807752805542
0.62125,0.62375,0.6825,0.58375,0.73625,0.53625,0.94375,0.83875,0.85,0.7975,0.78375,0.7975,0.45763801604950205,0.49471139901382577,0.5055303103548293,0.509948221935134,0.45872972139320034,0.13776766497614226,0.34150987722653836,0.21263691468372536
0.62125,0.62375,0.6825,0.58375,0.73625,0.53625,0.94375,0.83875,0.85,0.7975,0.78375,0.7975,0.45252344580875953,0.501740307454317,0.506506816204196,0.5051708663043145,0.44276147900568374,0.07383664669039587,0.3420706573384,0.13300467450575823
0.62125,0.62375,0.6825,0.58375,0.73625,0.53625,0.94375,0.83875,0.85,0.7975,0.78375,0.7975,0.4696654742337813,0.5043024267620613,0.49836121048051824,0.5099620294162189,0.4313703853928883,0.047721685059875577,0.33574312739167556,0.0015823161645358646
0.62225,0.62425,0.6829999999999999,0.585,0.738,0.53775,0.943,0.83975,0.8484999999999999,0.7977500000000001,0.78475,0.799,0.4741564343033936,0.5066663443875085,0.4965822295272165,0.5174318256107322,0.43064549803470686,0.04721659320654529,0.33398690968847283,0.002075316941941413
0.6232500000000001,0.62475,0.6835,0.58625,0.7397499999999999,0.53925,0.9422499999999999,0.84075,0.847,0.7979999999999999,0.7857500000000001,0.8005,0.47839118244223144,0.507024074253118,0.49632118340906894,0.5244666886884954,0.4359061116163791,0.047221423816656394,0.3328162002389207,0.001975778890878379
0.62425,0.62525,0.684,0.5875,0.7415,0.5407500000000001,0.9415,0.84175,0.8454999999999999,0.79825,0.78675,0.802,0.48436623803538625,0.5056608334139031,0.4943536691482162,0.5307628570889558,0.44124266742377394,0.04619997077621944,0.33442689073824944,0.002468574476339201
0.62525,0.62575,0.6845,0.58875,0.7432500000000001,0.54225,0.94075,0.8427500000000001,0.8440000000000001,0.7985,0.7877500000000001,0.8035,0.4891182442231461,0.502731315865803,0.4925650198201682,0.5338764226944491,0.4461995190129909,0.04644285548266239,0.33384169135925756,0.002565024045608318
0.62625,0.62625,0.685,0.59,0.745,0.54375,0.94,0.84375,0.8425,0.79875,0.78875,0.805,0.4902011021947211,0.49945857101421254,0.4925650198201682,0.5337590597530805,0.4508664156589352,0.04721498195826682,0.33354909076130673,0.002173521557205713
0.62625,0.62625,0.685,0.59,0.745,0.54375,0.94,0.84375,0.8425,0.79875,0.78875,0.805,0.4895243159624867,0.4967997679590061,0.49192690708691866,0.5307283381702923,0.4561615481592709,0.046198359527941005,0.33369523753140773,0.0022726523427979493
0.62625,0.62625,0.685,0.59,0.745,0.54375,0.94,0.84375,0.8425,0.79875,0.78875,0.805,0.48758580682587255,0.49464855457797546,0.4910325824228947,0.5255505686113253,0.46240939037593387,0.04568844019922388,0.3334027913707862,0.0018758304559259326
0.627,0.6267499999999999,0.6855,0.59125,0.74575,0.5455,0.94025,0.84375,0.8422499999999999,0.7995,0.78875,0.8057500000000001,0.4843904089722518,0.4935125205452963,0.49037029875277965,0.5188332749531144,0.46978253452677926,0.04466698402406268,0.33413490970652565,0.0018734791682920276
0.62775,0.62725,0.6859999999999999,0.5925,0.7465,0.54725,0.9405,0.84375,0.8420000000000001,0.80025,0.78875,0.8065000000000001,0.4808952915014986,0.4934303393599536,0.48911341003577297,0.5121504998896403,0.4769209533347652,0.04466698402406268,0.33413490970652565,0.0018734791682920276
0.6285000000000001,0.62775,0.6865000000000001,0.59375,0.74725,0.5489999999999999,0.94075,0.84375,0.84175,0.8009999999999999,0.78875,0.8072499999999999,0.47741951078023787,0.49374456153920526,0.4878710238808856,0.5060338277715043,0.48448740089809916,0.04568521770266697,0.3331103470270745,0.0021708528145570507
0.62925,0.62825,0.687,0.595,0.748,0.5507500000000001,0.941,0.84375,0.8415,0.80175,0.78875,0.8079999999999999,0.47463501885333076,0.493875084598279,0.4871217248380547,0.5012978943679886,0.49373144642674016,0.045175298373949874,0.3350139451821029,0.001878673830016869
0.63,0.62875,0.6875,0.59625,0.74875,0.5525,0.94125,0.84375,0.84125,0.8025,0.78875,0.80875,0.47272068065358214,0.49388475297302525,0.48649328047955137,0.4978736624896197,0.5032102176221673,0.04593776362933213,0.3347207286517446,0.001279789019671675
0.63,0.62875,0.6875,0.59625,0.74875,0.5525,0.94125,0.84375,0.84125,0.8025,0.78875,0.80875,0.47179735086531954,0.493449676109446,0.48638209416997,0.4953054886078369,0.5124611666753998,0.04593776362933213,0.3347207286517446,0.001279789019671675
0.63,0.62875,0.6875,0.59625,0.74875,0.5525,0.94125,0.84375,0.84125,0.8025,0.78875,0.80875,0.471724838054723,0.4920090882722614,0.4869718650294885,0.4927511220991635,0.5213876417587205,0.04593776362933213,0.3347207286517446,0.001279789019671675
0.6305,0.629,0.6875,0.5965,0.7490000000000001,0.5529999999999999,0.941,0.8447499999999999,0.84125,0.8025,0.789,0.809,0.47212124141931744,0.49015759450836316,0.4876776563859615,0.48924404598213833,0.5302243694297143,0.04567716773072323,0.33340387424900125,0.002269166574472725
0.631,0.62925,0.6875,0.59675,0.74925,0.5535,0.94075,0.84575,0.84125,0.8025,0.78925,0.80925,0.4727496857778207,0.48864932804795513,0.4882480904959876,0.4857162587514613,0.5361822569190557,0.04795490541137201,0.33384323754946055,0.002172092074113668
0.6315,0.6295000000000001,0.6875,0.597,0.7495,0.5539999999999999,0.9405,0.84675,0.84125,0.8025,0.7895,0.8095,0.47277385671468625,0.487228076960263,0.4886348254858358,0.4813945468651537,0.5426510175373711,0.04795490541137201,0.33384323754946055,0.002172092074113668
0.632,0.62975,0.6875,0.5972500000000001,0.7497499999999999,0.5545,0.94025,0.84775,0.84125,0.8025,0.78975,0.80975,0.47281736440104416,0.4869041864062651,0.4890118921009378,0.4775215747668644,0.5503693463398778,0.04618547894588615,0.3338429286748019,0.0019767973663972396
0.6325,0.63,0.6875,0.5975,0.75,0.555,0.94,0.84875,0.84125,0.8025,0.79,0.81,0.47291404814850624,0.48780334525766217,0.4898627090786039,0.47562305907475216,0.5601173623367055,0.04618547894588615,0.3338429286748019,0.0019767973663972396
0.6325,0.63,0.6875,0.5975,0.75,0.555,0.94,0.84875,0.84125,0.8025,0.79,0.81,0.47405491636855845,0.4892922749685778,0.4910857584839988,0.47701070142193946,0.5705419384281621,0.04618547894588615,0.333990000251969,0.002766059761990565
0.6325,0.63,0.6875,0.5975,0.75,0.555,0.94,0.84875,0.84125,0.8025,0.79,0.81,0.516262206323117,0.4866479744754907,0.4880257178768249,0.47500172652900113,0.5577632017123505,0.04592810240910992,0.3335504825141804,0.0016742702215330086
0.6325,0.63,0.6875,0.5975,0.75,0.555,0.94,0.84875,0.84125,0.8025,0.79,0.81,0.4919462438364111,0.48962583389732184,0.5064004640819878,0.4744218162105538,0.519116326047869,0.04568038709255587,0.3334043375609892,0.002268438735568556
0.632,0.62875,0.6877500000000001,0.5975,0.74925,0.5539999999999999,0.94,0.8490000000000001,0.84075,0.8027500000000001,0.79025,0.81025,0.48679300009668375,0.492932418060524,0.4999371555641497,0.4822022786779426,0.47181912502974077,0.046693790161049076,0.3335506369515097,0.00217003578888053
0.6315,0.6275,0.688,0.5975,0.7484999999999999,0.5529999999999999,0.94,0.84925,0.84025,0.8029999999999999,0.7905,0.8105,0.47479454703664314,0.4943391665860969,0.539727351832157,0.4938557128117185,0.4051363518666363,0.04643963298610548,0.33399046538086674,0.0016794804753509627
0.631,0.62625,0.68825,0.5975,0.74775,0.552,0.94,0.8495,0.83975,0.80325,0.7907500000000001,0.8107500000000001,0.48230204002707144,0.49973411969447934,0.5635598955815527,0.5154573688266406,0.3202071157578719,0.047708801343096456,0.3332583470451273,0.0024670115249305568
0.6305,0.625,0.6884999999999999,0.5975,0.747,0.551,0.94,0.8497499999999999,0.8392499999999999,0.8035,0.7909999999999999,0.8109999999999999,0.450565599922653,0.5066180025137774,0.6094218311901769,0.5302588874845733,0.2672419793863105,0.047708801343096456,0.3332583470451273,0.0024670115249305568
0.63,0.62375,0.68875,0.5975,0.74625,0.55,0.94,0.85,0.83875,0.80375,0.79125,0.81125,0.47898095330175,0.5181137000870154,0.6139272938219085,0.534815325037667,0.24654470647201632,0.04593132177094253,0.3347218097130498,0.0022707008364301513
0.63,0.62375,0.68875,0.5975,0.74625,0.55,0.94,0.85,0.83875,0.80375,0.79125,0.81125,0.48917625447162333,0.5238083728125302,0.6291259789229431,0.5190610968793581,0.2295478108467432,0.04593132177094253,0.3347218097130498,0.0022707008364301513
0.63,0.62375,0.68875,0.5975,0.74625,0.55,0.94,0.85,0.83875,0.80375,0.79125,0.81125,0.5021512133810306,0.5346176157787876,0.6220293918592285,0.49736969266928616,0.22444598178588998,0.04618386769760768,0.33413676477138726,0.0028625398917620933
0.63,0.62375,0.68875,0.5975,0.74625,0.55,0.94,0.85,0.83875,0.80375,0.79125,0.81125,0.48941312965290534,0.5051097360533694,0.6576525186116213,0.46641353257275014,0.25636866037554484,0.044025020704618736,0.3748389136894244,0.02340005382465375
0.63,0.62375,0.68875,0.5975,0.74625,0.55,0.94,0.85,0.83875,0.80375,0.79125,0.81125,0.4748525572851204,0.4782461568210384,0.6755293435173547,0.4456541270733292,0.2795305520352648,0.11774921856574434,0.30443632602329246,0.04323478222849807
0.624,0.6154999999999999,0.6829999999999999,0.58975,0.7382500000000001,0.5355,0.93425,0.8445,0.83475,0.79325,0.7835,0.7872499999999999,0.4962099970994876,0.4643575364981147,0.6843807405975055,0.4495201953231005,0.31598895684841044,0.16762787291876685,0.25818791290318943,0.06491034681828145
0.618,0.6072500000000001,0.6772499999999999,0.5820000000000001,0.7302500000000001,0.521,0.9285,0.8390000000000001,0.83075,0.7827500000000001,0.77575,0.76325,0.5070869186889684,0.4642125108769216,0.6942956588997389,0.4650120830684045,0.3651018322353343,0.16762787291876685,0.25818791290318943,0.06491034681828145
0.612,0.599,0.6715000000000001,0.5742499999999999,0.72225,0.5065,0.9227500000000001,0.8334999999999999,0.82675,0.77225,0.768,0.73925,0.5091752876341487,0.45439911050952336,0.6721744174804215,0.4751812231352519,0.42871246094049364,0.21983069021898285,0.24505183160237914,0.1673890497935376
0.606,0.59075,0.6657500000000001,0.5665,0.7142499999999999,0.49200000000000005,0.917,0.828,0.8227500000000001,0.7617499999999999,0.7602500000000001,0.71525,0.5153968867833317,0.4796770762834768,0.6191385478101131,0.4832792548602299,0.4709768724627042,0.5410434574882784,0.2434038126920987,0.37081698741974184
0.6,0.5825,0.66,0.55875,0.70625,0.4775,0.91125,0.8225,0.81875,0.75125,0.7525,0.69125,0.5204196074639853,0.5021802185052693,0.5680266847142995,0.4962305830920555,0.501484293958953,0.586075442537725,0.24166166150423254,0.4167261647424805
0.6,0.5825,0.66,0.55875,0.70625,0.4775,0.91125,0.8225,0.81875,0.75125,0.7525,0.69125,0.4998308034419414,0.50551580779271,0.5494295658899739,0.4948360370043257,0.5086710388427605,0.6108731961617069,0.332887840990628,0.5066311244614243
0.6015,0.5842499999999999,0.6615000000000001,0.56,0.70675,0.47625,0.9095,0.81975,0.8165,0.7484999999999999,0.75125,0.68425,0.4884124528666731,0.49875761384511264,0.543072609494344,0.4934345873380168,0.5097894371713699,0.33449702657766256,0.8944385060969713,0.9001352708873143
0.603,0.586,0.6629999999999999,0.56125,0.7072499999999999,0.475,0.9077500000000001,0.8170000000000001,0.8142499999999999,0.74575,0.75,0.6772499999999999,0.4891424151600116,0.4978729575558349,0.5437590641013246,0.4985226095116506,0.5006213323837877,0.33449702657766256,0.8944385060969713,0.9001352708873143
0.6045,0.58775,0.6645,0.5625,0.7077500000000001,0.47375,0.9059999999999999,0.8142499999999999,0.812,0.743,0.74875,0.67025,0.4908247123658513,0.49783911824422317,0.5480276515517741,0.5031204693730297,0.4914256126610296,0.5842767565558362,0.3713267907914973,0.6116574132854071
0.606,0.5895,0.6659999999999999,0.56375,0.70825,0.4725,0.90425,0.8115000000000001,0.80975,0.7402500000000001,0.7475,0.66325,0.49431016146185824,0.5005220922362951,0.5505414289857875,0.5029202622469926,0.4937107352321067,0.5842767565558362,0.3713267907914973,0.6116574132854071
0.6075,0.59125,0.6675,0.565,0.70875,0.47125,0.9025,0.80875,0.8075,0.7375,0.74625,0.65625,0.49452769989364787,0.4990718360243643,0.5496035966354056,0.5021746633972448,0.4978460476894131,0.5292763514397443,0.22444139055022475,0.5026498026213779
0.6075,0.59125,0.6675,0.565,0.70875,0.47125,0.9025,0.80875,0.8075,0.7375,0.74625,0.65625,0.49464372039060234,0.49894131296529054,0.5492023590834381,0.5018847082650151,0.49799102524877953,0.4484535077585038,0.03815725611218807,0.40665308760844965
0.6075,0.59125,0.6675,0.565,0.70875,0.47125,0.9025,0.80875,0.8075,0.7375,0.74625,0.65625,0.4950787972541816,0.49888813690418643,0.548868800154694,0.5015602346730179,0.4981912323545713,0.4329934864849482,0.02116930250731296,0.39827323569164674
0.6075,0.59125,0.6675,0.565,0.70875,0.47125,0.9025,0.80875,0.8075,0.7375,0.74625,0.65625,0.49545102968191046,0.498917142028425,0.5486415933481582,0.5012564721676788,0.49856403180643905,0.4365500568775345,0.06612002417187673,0.4075698284621912
0.611,0.59625,0.67,0.5692499999999999,0.7127500000000001,0.48325,0.904,0.81025,0.80875,0.74,0.74725,0.65825,0.4954800348061491,0.49913468046021464,0.5483225369815334,0.5007870210500576,0.4992060752903817,0.4365500568775345,0.06612002417187673,0.4075698284621912
0.6145,0.60125,0.6725,0.5735,0.71675,0.49524999999999997,0.9055,0.81175,0.81,0.7425,0.7482500000000001,0.66025,0.4952093203132553,0.4995890940732863,0.5480421541138935,0.5004625474580604,0.49942699346258596,0.41348496253799166,0.3134025867140713,0.4039705995942257
0.618,0.60625,0.675,0.57775,0.72075,0.50725,0.907,0.81325,0.81125,0.745,0.74925,0.6622499999999999,0.4955283766798801,0.4998694769409262,0.5478826259305811,0.49993786676702,0.499641007954984,0.3932700598224198,0.3081170854002892,0.37519846161773845
0.6214999999999999,0.61125,0.6775,0.5820000000000001,0.7247499999999999,0.51925,0.9085,0.81475,0.8125,0.7475,0.7502500000000001,0.66425,0.4962196654742338,0.4998308034419414,0.5480373199265204,0.4991439420034139,0.5004004142250804,0.3647018378947997,0.3138125833021328,0.34808764993080715
0.625,0.61625,0.68,0.58625,0.72875,0.53125,0.91,0.81625,0.81375,0.75,0.75125,0.66625,0.49597312191820553,0.4997099487576138,0.5485545779754424,0.4983569209803502,0.501249568481124,0.3012163297580476,0.33662393617117536,0.29798841318135044
0.625,0.61625,0.68,0.58625,0.72875,0.53125,0.91,0.81625,0.81375,0.75,0.75125,0.66625,0.49523832543749396,0.4996664410712559,0.5487962873440975,0.4980531584750111,0.5014911977467348,0.3012163297580476,0.33662393617117536,0.29798841318135044
0.625,0.61625,0.68,0.58625,0.72875,0.53125,0.91,0.81625,0.81375,0.75,0.75125,0.66625,0.49471139901382577,0.4994005607657353,0.5488542975925746,0.49784604767591617,0.5012288574012146,0.27239233940720536,0.34510145177121704,0.2725508850483031
0.625,0.61625,0.68,0.58625,0.72875,0.53125,0.91,0.81625,0.81375,0.75,0.75125,0.66625,0.4939766025331142,0.49896548390215606,0.548965483902156,0.4980669658616174,0.500234725565559,0.22486227690766836,0.3500540116397199,0.2242746664645167
0.62575,0.61775,0.6807500000000001,0.5875,0.7315,0.534,0.9125,0.8170000000000001,0.81675,0.752,0.752,0.67425,0.4938025717876825,0.49897031808952913,0.5489316445905443,0.4986813945925928,0.4987573351851852,0.10934597886958226,0.3543852010897941,0.10492852328205915
0.6265,0.61925,0.6815000000000001,0.58875,0.73425,0.53675,0.915,0.8177500000000001,0.81975,0.754,0.75275,0.6822499999999999,0.49478391182442233,0.49899448902639465,0.5485062361017113,0.49935795652280585,0.49797721785542476,0.10175351366463772,0.35613956372813516,0.10010436773307353
0.62725,0.62075,0.6822499999999999,0.59,0.737,0.5395,0.9175,0.8184999999999999,0.8227500000000001,0.7559999999999999,0.7535,0.69025,0.4959199458571014,0.4988736343420671,0.5482790292951755,0.4996272005616292,0.4983569209870987,0.10175351366463772,0.35613956372813516,0.10010436773307353
0.628,0.62225,0.6829999999999999,0.59125,0.7397499999999999,0.54225,0.92,0.8192499999999999,0.82575,0.758,0.75425,0.69825,0.49618099197524895,0.4991733539591995,0.548491733539592,0.49961339317502285,0.49926130478956765,0.08403185778904516,0.37004563684856356,0.09732258615180572
0.6285000000000001,0.6232500000000001,0.68325,0.5920000000000001,0.74175,0.5455,0.9225,0.8195,0.8272499999999999,0.75925,0.75425,0.706,0.49632118340906894,0.49931837958039255,0.5486270907860389,0.4994408008491923,0.5004556437242664,0.08403185778904516,0.37004563684856356,0.09732258615180572
0.62825,0.62275,0.6827500000000001,0.5915,0.741,0.546,0.9225,0.8190000000000001,0.82575,0.7585,0.7535,0.70575,0.49580392536014695,0.4993135453930194,0.5488301266557092,0.4995926821086103,0.5014428718733672,0.08276430068033266,0.3759025817175694,0.09840250449628882
0.628,0.62225,0.6822499999999999,0.591,0.7402500000000001,0.5465,0.9225,0.8184999999999999,0.8242499999999999,0.75775,0.75275,0.7055,0.49518514937638985,0.4994005607657353,0.5489799864642754,0.4997376596612283,0.5018018639183832,0.08174445888817419,0.38102725563041623,0.0997742082808831
0.62775,0.62175,0.68175,0.5905,0.7395,0.547,0.9225,0.818,0.8227500000000001,0.757,0.752,0.70525,0.4947259015759451,0.4994053949531084,0.5492652035192884,0.5000552295464253,0.5016845011389779,0.10780816150731438,0.3765047819211549,0.12825394087563888
0.6275,0.62125,0.68125,0.59,0.73875,0.5475,0.9225,0.8175,0.82125,0.75625,0.75125,0.705,0.4948322536981533,0.4992071932708112,0.5492845402687808,0.5006420434704457,0.5018501897782538,0.1300546978352594,0.3652415384931918,0.14769500759803322
0.6275,0.62125,0.68125,0.59,0.73875,0.5475,0.9225,0.8175,0.82125,0.75625,0.75125,0.705,0.49483708788552644,0.49928454026878083,0.5492990428309001,0.5013807386336387,0.5021746633432571,0.1300546978352594,0.3652415384931918,0.14769500759803322
0.6265,0.61975,0.6809999999999999,0.58775,0.7375,0.54325,0.922,0.815,0.82,0.7559999999999999,0.75125,0.7084999999999999,0.4947790776370492,0.49935221889200426,0.5492555351445422,0.5017949602318285,0.5025405591085701,0.13586968346805006,0.36363316637071263,0.15213684128301175
0.6255,0.6182500000000001,0.6807500000000001,0.5855,0.73625,0.539,0.9215000000000001,0.8125,0.81875,0.75575,0.75125,0.7120000000000001,0.4946388862032292,0.49932804795513874,0.5493280479551388,0.5021815670837996,0.5028857437872252,0.13940532017191343,0.36099976825679436,0.15727148779431438
0.6245,0.61675,0.6805,0.58325,0.735,0.5347500000000001,0.9209999999999999,0.81,0.8175,0.7555,0.75125,0.7155,0.4944358503335589,0.49935705307937733,0.5491926907086919,0.5024162926426101,0.5030514324265011,0.145455137404479,0.3555871341335154,0.16693726453125107
0.6235,0.61525,0.68025,0.581,0.73375,0.5305,0.9205,0.8075,0.81625,0.7552500000000001,0.75125,0.7190000000000001,0.4941989751522769,0.49937155564149666,0.549057333462245,0.5024715221890355,0.5027752847213685,0.145455137404479,0.3555871341335154,0.16693726453125107
0.6225,0.61375,0.68,0.57875,0.7325,0.52625,0.92,0.805,0.815,0.755,0.75125,0.7225,0.4940394469689645,0.4994005607657353,0.5489896548390215,0.5023541594096301,0.5022644114439283,0.1795455429090573,0.3409634743215817,0.20612606513345416
0.6225,0.61375,0.68,0.57875,0.7325,0.52625,0.92,0.805,0.815,0.755,0.75125,0.7225,0.49391859228463697,0.4994295658899739,0.5490138257758871,0.5021470485970383,0.5018018639723709,0.18155946532926456,0.3380371667350539,0.2092908708466006
0.6225,0.61375,0.68,0.57875,0.7325,0.52625,0.92,0.805,0.815,0.755,0.75125,0.7225,0.49387025041090593,0.49950207870057045,0.5489123078410519,0.5018778045514665,0.5012840869678853,0.18155946532926456,0.3380371667350539,0.2092908708466006
0.6225,0.61375,0.68,0.57875,0.7325,0.52625,0.92,0.805,0.815,0.755,0.75125,0.7225,0.493826742724548,0.49955042057430143,0.5489268104031713,0.5015602346730179,0.5008146358165217,0.2000242608850707,0.32574163331044437,0.21426181909125344
0.62175,0.612,0.6795,0.5775,0.7304999999999999,0.52125,0.91875,0.804,0.8155,0.7559999999999999,0.752,0.72625,0.49389442134777145,0.4995697573237939,0.5489316445905443,0.5012564721676788,0.5004004142115834,0.2000242608850707,0.32574163331044437,0.21426181909125344
0.621,0.61025,0.679,0.57625,0.7284999999999999,0.51625,0.9175,0.8029999999999999,0.816,0.757,0.75275,0.73,0.49404428115633764,0.49960843082277867,0.5489896548390215,0.5009250948958753,0.5001311701727601,0.2058440771279724,0.3219361339941003,0.21565727150463385
0.62025,0.6085,0.6785,0.575,0.7265,0.51125,0.91625,0.802,0.8165,0.758,0.7535,0.73375,0.4941699700280383,0.4996664410712559,0.5490428309001257,0.5005799102374657,0.4999102519870589,0.2174869289756085,0.3171062246187246,0.22111300286996427
0.6195,0.60675,0.6779999999999999,0.57375,0.7245,0.50625,0.915,0.8009999999999999,0.8170000000000001,0.759,0.75425,0.7375,0.49414096490379966,0.49971961713236007,0.5490718360243643,0.5002416292521138,0.4997790818142988,0.22456947171711167,0.31315488922384793,0.22339167001858212
0.61875,0.605,0.6775,0.5725,0.7225,0.50125,0.91375,0.8,0.8175,0.76,0.755,0.74125,0.4941651358406652,0.49974378806922554,0.5490041574011408,0.49984121505402723,0.499641007954984,0.23039572981840295,0.3106677905004501,0.22428840933534241
0.61875,0.605,0.6775,0.5725,0.7225,0.50125,0.91375,0.8,0.8175,0.76,0.755,0.74125,0.49419414096490377,0.49971961713236007,0.5489074736536789,0.49948222300226275,0.4995305488688819,0.23039572981840295,0.3106677905004501,0.22428840933534241
0.61875,0.605,0.6775,0.5725,0.7225,0.50125,0.91375,0.8,0.8175,0.76,0.755,0.74125,0.49411195977956107,0.4996035966354056,0.5487914531567244,0.4991922678902784,0.4993372454631418,0.2496358774810947,0.30671861904509373,0.23082450622638495
