C0,C1,C2,C3,C4,C5,C6,C7,C8,C9,C10,C11,Ax,Ay,Az,Gr,Gp,Fx_norm,Fy_norm,Fz_norm
0.61625,0.585,0.68125,0.56125,0.7125,0.44125,0.88625,0.78,0.8275,0.765,0.755,0.7375,0.49615478515625,0.4996439615885417,0.5309295654296875,0.4999598876844845,0.49931809064930727,0.2273383374830258,0.1446188394078099,0.20661058406697547
0.61625,0.585,0.68125,0.56125,0.7125,0.44125,0.88625,0.78,0.8275,0.765,0.755,0.7375,0.4962005615234375,0.4995918273925781,0.5309791564941406,0.4999598876844845,0.4992880064094032,0.2273383374830258,0.1446188394078099,0.20661058406697547
0.61625,0.585,0.68125,0.56125,0.7125,0.44125,0.88625,0.78,0.8275,0.765,0.755,0.7375,0.4961944580078125,0.499578857421875,0.5309326171875,0.49998395507379384,0.49933413557028544,0.2273383374830258,0.1446188394078099,0.20661058406697547
0.61625,0.58475,0.68125,0.56125,0.7125,0.4415,0.88625,0.7802500000000001,0.8270000000000001,0.7647499999999999,0.755,0.7375,0.4962158203125,0.4995758056640625,0.5309539794921875,0.4999679101475876,0.4993180906440792,0.2273383374830258,0.1446188394078099,0.20661058406697547
0.61625,0.5845,0.68125,0.56125,0.7125,0.44175,0.88625,0.7805,0.8265,0.7645000000000001,0.755,0.7375,0.4962188720703125,0.4995330810546875,0.5309326171875,0.49997593261069073,0.4992699558497765,0.2273383374830258,0.1446188394078099,0.20661058406697547
0.61625,0.5842499999999999,0.68125,0.56125,0.7125,0.442,0.88625,0.78075,0.826,0.76425,0.755,0.7375,0.496240234375,0.499578857421875,0.5309417724609375,0.49998395507379384,0.4992779783128796,0.2273383374830258,0.1446188394078099,0.20661058406697547
0.61625,0.584,0.68125,0.56125,0.7125,0.44225000000000003,0.88625,0.7809999999999999,0.8255,0.764,0.755,0.7375,0.496246337890625,0.4996429443359375,0.5309356689453125,0.500008022463103,0.49931809062839505,0.2273383374830258,0.1446188394078099,0.20661058406697547
0.61625,0.58375,0.68125,0.56125,0.7125,0.4425,0.88625,0.78125,0.825,0.76375,0.755,0.7375,0.4962890625,0.499658203125,0.53096923828125,0.49994384275827836,0.4992940232390858,0.2273383374830258,0.1446188394078099,0.20661058406697547
0.61625,0.58375,0.68125,0.56125,0.7125,0.4425,0.88625,0.78125,0.825,0.76375,0.755,0.7375,0.496319580078125,0.4996673583984375,0.53095703125,0.4999598876844845,0.49931809063623717,0.2273383374830258,0.1446188394078099,0.20661058406697547
0.61625,0.58375,0.68125,0.56125,0.7125,0.4425,0.88625,0.78125,0.825,0.76375,0.755,0.7375,0.496356201171875,0.4996856689453125,0.5309906005859375,0.49995186522138146,0.4993662254305399,0.2273383374830258,0.1446188394078099,0.20661058406697547
0.61625,0.58375,0.6815000000000001,0.5615,0.7127500000000001,0.44275,0.88625,0.78125,0.82475,0.7635,0.7555,0.73725,0.4963531494140625,0.49964599609375,0.5309722900390625,0.4998876855165567,0.4993501805121758,0.2273383374830258,0.1446188394078099,0.20661058406697547
0.61625,0.58375,0.68175,0.56175,0.713,0.44299999999999995,0.88625,0.78125,0.8245,0.76325,0.7559999999999999,0.737,0.4963653564453125,0.4995819091796875,0.53092041015625,0.4998395507379382,0.4993501805121758,0.2273383374830258,0.1446188394078099,0.20661058406697547
0.61625,0.58375,0.682,0.562,0.71325,0.44325000000000003,0.88625,0.78125,0.8242499999999999,0.763,0.7565000000000001,0.73675,0.496368408203125,0.499566650390625,0.5309478759765625,0.4998796630534536,0.4993341355938117,0.2273383374830258,0.1446188394078099,0.20661058406697547
0.61625,0.58375,0.6822499999999999,0.56225,0.7134999999999999,0.4435,0.88625,0.78125,0.8240000000000001,0.76275,0.757,0.7365,0.4963470458984375,0.499517822265625,0.53092041015625,0.4998957079796598,0.4993582029752789,0.2273383374830258,0.1446188394078099,0.20661058406697547
0.61625,0.58375,0.6825,0.5625,0.71375,0.44375,0.88625,0.78125,0.82375,0.7625,0.7575,0.73625,0.496337890625,0.49951171875,0.5309234619140625,0.499911752905866,0.4993421580333885,0.2273383374830258,0.1446188394078099,0.20661058406697547
0.61625,0.58375,0.6825,0.5625,0.71375,0.44375,0.88625,0.78125,0.82375,0.7625,0.7575,0.73625,0.49637451171875,0.499505615234375,0.530975341796875,0.4999197753689691,0.49930204571003095,0.2273383374830258,0.1446188394078099,0.20661058406697547
0.61625,0.58375,0.6825,0.5625,0.71375,0.44375,0.88625,0.78125,0.82375,0.7625,0.7575,0.73625,0.49637451171875,0.4995330810546875,0.5310272216796875,0.4999277978320722,0.4992458884683093,0.2273383374830258,0.1446188394078099,0.20661058406697547
0.61625,0.58375,0.6822499999999999,0.5625,0.71375,0.44375,0.8859999999999999,0.78125,0.8240000000000001,0.7625,0.75775,0.736,0.4963623046875,0.4995330810546875,0.5309844970703125,0.4999197753689691,0.49923786599736414,0.2273383374830258,0.1446188394078099,0.20661058406697547
0.61625,0.58375,0.682,0.5625,0.71375,0.44375,0.88575,0.78125,0.8242499999999999,0.7625,0.758,0.73575,0.4963531494140625,0.4995391845703125,0.5310028076171875,0.49994384275827836,0.49920577614495176,0.2273383374830258,0.1446188394078099,0.20661058406697547
0.61625,0.58375,0.68175,0.5625,0.71375,0.44375,0.8855,0.78125,0.8245,0.7625,0.75825,0.7354999999999999,0.4963714599609375,0.499505615234375,0.531011962890625,0.499911752905866,0.4992378660052062,0.2273383374830258,0.1446188394078099,0.20661058406697547
0.61625,0.58375,0.6815000000000001,0.5625,0.71375,0.44375,0.8852500000000001,0.78125,0.82475,0.7625,0.7585,0.7352500000000001,0.4963165283203125,0.49951171875,0.5309600830078125,0.49993582029517525,0.49929402324692784,0.2273383374830258,0.1446188394078099,0.20661058406697547
0.61625,0.58375,0.68125,0.5625,0.71375,0.44375,0.885,0.78125,0.825,0.7625,0.75875,0.735,0.49630126953125,0.4994842529296875,0.530902099609375,0.49995186522138146,0.49933413557028544,0.2273383374830258,0.1446188394078099,0.20661058406697547
0.61625,0.584,0.6815000000000001,0.5625,0.71325,0.444,0.885,0.7809999999999999,0.825,0.76225,0.7585,0.7347499999999999,0.4962890625,0.4994964599609375,0.530902099609375,0.49995186522138146,0.4993261130993402,0.2273383374830258,0.1446188394078099,0.20661058406697547
0.61625,0.5842499999999999,0.68175,0.5625,0.7127500000000001,0.44425,0.885,0.78075,0.825,0.762,0.75825,0.7345,0.496319580078125,0.4994781494140625,0.5308868408203125,0.4999037304427629,0.4993261130993402,0.2273383374830258,0.1446188394078099,0.20661058406697547
0.61625,0.5845,0.682,0.5625,0.7122499999999999,0.4445,0.885,0.7805,0.825,0.7617499999999999,0.758,0.73425,0.4962890625,0.49949951171875,0.5308807373046875,0.49995186522138146,0.4992940232390858,0.2273383374830258,0.1446188394078099,0.20661058406697547
0.61625,0.58475,0.6822499999999999,0.5625,0.71175,0.44475000000000003,0.885,0.7802500000000001,0.825,0.7615000000000001,0.75775,0.7340000000000001,0.496319580078125,0.4994842529296875,0.5309173583984375,0.49994384275827836,0.4992539109235703,0.2268945102475755,0.1456344570104182,0.2056975850894921
0.61625,0.585,0.6825,0.5625,0.71125,0.445,0.885,0.78,0.825,0.76125,0.7575,0.73375,0.49635009765625,0.4994781494140625,0.53094482421875,0.49993582029517525,0.49922984352641897,0.22889597473862566,0.14529615588803232,0.20642709364799225
0.61625,0.585,0.6825,0.5625,0.71125,0.445,0.885,0.78,0.825,0.76125,0.7575,0.73375,0.4963531494140625,0.4994598388671875,0.5309478759765625,0.49997593261069073,0.49921379861589693,0.22644926995311765,0.14461919652553526,0.20660896082827826
0.61625,0.585,0.6825,0.5625,0.71125,0.445,0.885,0.78,0.825,0.76125,0.7575,0.73375,0.496343994140625,0.4994659423828125,0.53095703125,0.500008022463103,0.49922984354210315,0.2266697677573341,0.1442801811676987,0.20660753898396034
0.61625,0.585,0.6825,0.5625,0.71125,0.445,0.885,0.78,0.825,0.76125,0.7575,0.73375,0.4963531494140625,0.499444580078125,0.53094482421875,0.5000240673893093,0.4992539109392545,0.2266697677573341,0.1442801811676987,0.20660753898396034
0.61625,0.585,0.6827500000000001,0.56275,0.71125,0.44475000000000003,0.8847499999999999,0.7795000000000001,0.82475,0.76125,0.75725,0.7340000000000001,0.4963409423828125,0.4994476318359375,0.5309173583984375,0.5000401123155155,0.4992699558654607,0.22711925549231793,0.14394176100607103,0.20479036497986974
0.61625,0.585,0.6829999999999999,0.563,0.71125,0.4445,0.8845000000000001,0.779,0.8245,0.76125,0.757,0.73425,0.4963134765625,0.499481201171875,0.5309173583984375,0.5000160449262062,0.4993421580333885,0.22600544271766737,0.14563374277496746,0.20442185066755808
0.61625,0.585,0.68325,0.56325,0.71125,0.44425,0.88425,0.7785,0.8242499999999999,0.76125,0.7567499999999999,0.7345,0.4963134765625,0.499462890625,0.5309539794921875,0.49998395507379384,0.49941436019347424,0.22600544271766737,0.14563374277496746,0.20442185066755808
0.61625,0.585,0.6835,0.5635,0.71125,0.444,0.884,0.778,0.8240000000000001,0.76125,0.7565000000000001,0.7347499999999999,0.4963043212890625,0.4994720458984375,0.530975341796875,0.49997593261069073,0.4994464500458866,0.2251135463152429,0.1459724010150787,0.2049680604194416
0.61625,0.585,0.68375,0.56375,0.71125,0.44375,0.88375,0.7775,0.82375,0.76125,0.75625,0.735,0.4963287353515625,0.49951171875,0.530999755859375,0.49994384275827836,0.4994544725089897,0.22466689020727634,0.1461980546027316,0.2052391361031588
0.61625,0.585,0.68375,0.56375,0.71125,0.444,0.884,0.7775,0.82375,0.76125,0.75625,0.735,0.4963531494140625,0.4995147705078125,0.5310272216796875,0.49994384275827836,0.4995186522138145,0.22622594327638484,0.14619841172045697,0.20496570755767884
0.61625,0.585,0.68375,0.56375,0.71125,0.44425,0.88425,0.7775,0.82375,0.76125,0.75625,0.735,0.4963531494140625,0.49951171875,0.53104248046875,0.4999919775368969,0.4995266746769175,0.22577645554140097,0.14563457604966,0.20578449539534915
0.61625,0.585,0.68375,0.56375,0.71125,0.4445,0.8845000000000001,0.7775,0.82375,0.76125,0.75625,0.735,0.4963531494140625,0.4995208740234375,0.5310546875,0.5,0.49958283191863917,0.22577645554140097,0.14563457604966,0.20578449539534915
0.61625,0.585,0.68375,0.56375,0.71125,0.44475000000000003,0.8847499999999999,0.7775,0.82375,0.76125,0.75625,0.735,0.4963531494140625,0.4995452880859375,0.5310089111328125,0.49997593261069073,0.4996068993079485,0.22644644108060133,0.14608552610724046,0.20614881782750877
0.61625,0.585,0.68375,0.56375,0.71125,0.445,0.885,0.7775,0.82375,0.76125,0.75625,0.735,0.4963409423828125,0.4995330810546875,0.530950927734375,0.500008022463103,0.49970316886518557,0.2266669388848178,0.14687572820067937,0.20660782323774143
0.61625,0.585,0.68375,0.56375,0.71125,0.445,0.885,0.7775,0.82375,0.76125,0.75625,0.735,0.4963470458984375,0.499505615234375,0.5309112548828125,0.5000240673893093,0.4997593261069072,0.22688743668903433,0.14664959845605932,0.20596591260305053
0.61625,0.585,0.68375,0.56375,0.71125,0.445,0.885,0.7775,0.82375,0.76125,0.75625,0.735,0.4963623046875,0.4994964599609375,0.5309234619140625,0.5000240673893093,0.49985559566414434,0.2253326310604517,0.14698778053920342,0.20551105246455642
0.61625,0.585,0.68375,0.56375,0.71125,0.445,0.885,0.7775,0.82375,0.76125,0.75625,0.735,0.49637451171875,0.4995269775390625,0.530908203125,0.5000722021679278,0.4999277978320722,0.22555737355069314,0.14721367220533987,0.20478316311686584
0.61625,0.585,0.68375,0.56375,0.71125,0.445,0.885,0.7775,0.82375,0.76125,0.75625,0.735,0.4964019775390625,0.49957275390625,0.5309356689453125,0.5000962695572371,0.5000561572417217,0.22622169859035987,0.1481161661162481,0.20488019090092657
0.61625,0.58475,0.6835,0.5635,0.711,0.4445,0.8845000000000001,0.77725,0.82325,0.7609999999999999,0.7559999999999999,0.7352500000000001,0.49635009765625,0.4995819091796875,0.530975341796875,0.5000962695572371,0.500176494188268,0.22354883550110174,0.14777714935794986,0.20351160446353356
0.61625,0.5845,0.68325,0.56325,0.71075,0.444,0.884,0.777,0.8227500000000001,0.76075,0.75575,0.7354999999999999,0.4963714599609375,0.4996246337890625,0.531011962890625,0.5001042920203402,0.5002807862086083,0.22354883550110174,0.14777714935794986,0.20351160446353356
0.61625,0.5842499999999999,0.6829999999999999,0.563,0.7105,0.4435,0.8835,0.7767499999999999,0.8222499999999999,0.7605,0.7555,0.73575,0.4963104248046875,0.499627685546875,0.53096923828125,0.500080224631031,0.500344965913433,0.2244407319035262,0.14721319604837277,0.20433313989595006
0.61625,0.584,0.6827500000000001,0.56275,0.71025,0.44299999999999995,0.883,0.7765000000000001,0.82175,0.7602500000000001,0.7552500000000001,0.736,0.4962646484375,0.4996307373046875,0.530975341796875,0.5000240673893093,0.5002647412824021,0.223551664373618,0.14743896867526746,0.20415238211098777
0.61625,0.58375,0.6825,0.5625,0.71,0.4425,0.8825,0.77625,0.82125,0.76,0.755,0.73625,0.4962158203125,0.499554443359375,0.530963134765625,0.5000320898524123,0.500168471725165,0.223551664373618,0.14743896867526746,0.20415238211098777
0.61625,0.58375,0.6825,0.5625,0.71,0.4425,0.8825,0.77625,0.82125,0.76,0.755,0.73625,0.49625244140625,0.4995635986328125,0.530926513671875,0.49997593261069073,0.49997593261069073,0.22443648721750126,0.14789051252859517,0.20552410166951024
0.61625,0.58375,0.6825,0.56225,0.7105,0.4415,0.88225,0.7755,0.82075,0.7605,0.755,0.73675,0.4962127685546875,0.499517822265625,0.53092041015625,0.4999277978320722,0.4997673485700103,0.223992659982051,0.1474394448322346,0.2067115856498461
0.61625,0.58375,0.6825,0.562,0.711,0.44049999999999995,0.882,0.7747499999999999,0.82025,0.7609999999999999,0.755,0.73725,0.496234130859375,0.499517822265625,0.530938720703125,0.4998957079796598,0.4995346971321786,0.223992659982051,0.1474394448322346,0.2067115856498461
0.61625,0.58375,0.6825,0.56175,0.7115,0.4395,0.8817499999999999,0.774,0.81975,0.7615000000000001,0.755,0.73775,0.4962432861328125,0.499468994140625,0.5309356689453125,0.4998796630534536,0.4994624949642507,0.22554888417864324,0.14845482435635932,0.2062585443903033
0.61625,0.58375,0.6825,0.5615,0.7120000000000001,0.4385,0.8815000000000001,0.77325,0.8192499999999999,0.762,0.755,0.7382500000000001,0.4962493896484375,0.4994659423828125,0.530963134765625,0.49981548334862885,0.4994223826487353,0.22577362666888465,0.1477775078761369,0.20662968028202097
0.61625,0.58375,0.6825,0.56125,0.7125,0.4375,0.88125,0.7725,0.81875,0.7625,0.755,0.73875,0.4962554931640625,0.4994171142578125,0.531005859375,0.4997994384224227,0.4994223826487353,0.22710793449325076,0.14732620070083105,0.2060830850037542
0.61625,0.58375,0.6825,0.56125,0.7125,0.4375,0.88125,0.7725,0.81875,0.7625,0.755,0.73875,0.496234130859375,0.4994415283203125,0.5310028076171875,0.4998395507379382,0.4994544725011476,0.22777367534642617,0.14721331508761454,0.20490640669498672
0.61625,0.58375,0.6825,0.56125,0.7125,0.4375,0.88125,0.7725,0.81875,0.7625,0.755,0.73875,0.4962127685546875,0.4994537353515625,0.5309844970703125,0.499911752905866,0.499478539898299,0.22844507394463415,0.14540737495186384,0.20500901137711663
0.61625,0.5835,0.6822499999999999,0.56125,0.71175,0.43725,0.88075,0.772,0.8190000000000001,0.7625,0.7547499999999999,0.73875,0.4962188720703125,0.4995086669921875,0.5309814453125,0.4999277978320722,0.4994384275827835,0.22711076612026806,0.14563314757875856,0.205193352255793
0.61625,0.58325,0.682,0.56125,0.711,0.43700000000000006,0.8802500000000001,0.7715000000000001,0.8192499999999999,0.7625,0.7545000000000001,0.73875,0.4961883544921875,0.49949951171875,0.530950927734375,0.49998395507379384,0.4993662254070136,0.225772210855376,0.1464229925544721,0.20619363785891642
0.61625,0.583,0.68175,0.56125,0.71025,0.43674999999999997,0.8797499999999999,0.7709999999999999,0.8195,0.7625,0.75425,0.73875,0.49615478515625,0.499542236328125,0.5309356689453125,0.5000481347786185,0.49929402324692784,0.225772210855376,0.1464229925544721,0.20619363785891642
0.61625,0.58275,0.6815000000000001,0.56125,0.7095,0.4365,0.87925,0.7705,0.81975,0.7625,0.754,0.73875,0.4961761474609375,0.499560546875,0.5309112548828125,0.49998395507379384,0.49918170876348456,0.2246569850217178,0.14619745800606102,0.20655541178905906
0.61625,0.5825,0.68125,0.56125,0.70875,0.43625,0.87875,0.77,0.82,0.7625,0.75375,0.73875,0.4962249755859375,0.49954833984375,0.5309234619140625,0.49998395507379384,0.4991496189110722,0.2246569850217178,0.14619745800606102,0.20655541178905906
0.61625,0.5825,0.68125,0.56125,0.70875,0.43625,0.87875,0.77,0.82,0.7625,0.75375,0.73875,0.49625244140625,0.4995269775390625,0.5309234619140625,0.4999919775368969,0.49918973122658766,0.22488031445295154,0.14664840806364146,0.20682970345330742
0.61625,0.5825,0.68125,0.56125,0.70875,0.43625,0.87875,0.77,0.82,0.7625,0.75375,0.73875,0.496307373046875,0.4995513916015625,0.530963134765625,0.500008022463103,0.49929402325476996,0.22488031445295154,0.14664840806364146,0.20682970345330742
0.616,0.5825,0.68125,0.561,0.70875,0.436,0.8785,0.7695000000000001,0.8195,0.762,0.75325,0.7384999999999999,0.496319580078125,0.499505615234375,0.53096923828125,0.4999919775368969,0.499478539898299,0.22554605255162594,0.14721295796988917,0.2068328992944007
0.61575,0.5825,0.68125,0.5607500000000001,0.70875,0.43575,0.87825,0.769,0.8190000000000001,0.7615000000000001,0.75275,0.7382500000000001,0.496295166015625,0.4994781494140625,0.5309814453125,0.5000240673893093,0.4996791014758763,0.2239898311095347,0.1469870663037527,0.20573414449887326
0.6154999999999999,0.5825,0.68125,0.5605,0.70875,0.4355,0.878,0.7685,0.8184999999999999,0.7609999999999999,0.75225,0.738,0.496221923828125,0.499481201171875,0.5309814453125,0.4999598876844845,0.49986361812724744,0.22443931609001758,0.14687382217234915,0.2059180296508399
0.61525,0.5825,0.68125,0.56025,0.70875,0.43524999999999997,0.87775,0.768,0.818,0.7605,0.7517499999999999,0.73775,0.4961578369140625,0.499481201171875,0.530963134765625,0.4999197753689691,0.500008022463103,0.22510647275670162,0.14755125909227504,0.2061938150859702
0.615,0.5825,0.68125,0.56,0.70875,0.435,0.8775,0.7675,0.8175,0.76,0.75125,0.7375,0.4961212158203125,0.4995208740234375,0.5309295654296875,0.4998876855165567,0.5000320898524123,0.2228816815889187,0.14766390662700798,0.20427373028029314
0.615,0.5825,0.68125,0.56,0.70875,0.435,0.8775,0.7675,0.8175,0.76,0.75125,0.7375,0.4961151123046875,0.4995513916015625,0.5308929443359375,0.4998876855165567,0.5000160449262062,0.2228816815889187,0.14766390662700798,0.20427373028029314
0.61525,0.5825,0.6809999999999999,0.56025,0.7090000000000001,0.43475,0.878,0.7685,0.8177500000000001,0.7605,0.752,0.738,0.496142578125,0.4995635986328125,0.5308929443359375,0.4999037304427629,0.4999679101475876,0.22265835215768492,0.14867964326885805,0.20500578331292266
0.6154999999999999,0.5825,0.6807500000000001,0.5605,0.7092499999999999,0.43450000000000005,0.8785,0.7695000000000001,0.818,0.7609999999999999,0.75275,0.7384999999999999,0.496185302734375,0.49957275390625,0.530902099609375,0.49994384275827836,0.4998957079796598,0.22265976797119355,0.15071135603150346,0.20663469270041557
0.61575,0.5825,0.6805,0.5607500000000001,0.7095,0.43424999999999997,0.879,0.7705,0.81825,0.7615000000000001,0.7535,0.7390000000000001,0.49620361328125,0.4995635986328125,0.5309173583984375,0.49995186522138146,0.49985559566414434,0.22265976797119355,0.15071135603150346,0.20663469270041557
0.616,0.5825,0.68025,0.561,0.70975,0.434,0.8795000000000001,0.7715000000000001,0.8184999999999999,0.762,0.75425,0.7395,0.4962066650390625,0.49954833984375,0.530908203125,0.49995186522138146,0.4998074608855258,0.2228788499619014,0.15093712865839817,0.207454328696129
0.61625,0.5825,0.68,0.56125,0.71,0.43375,0.88,0.7725,0.81875,0.7625,0.755,0.74,0.4962432861328125,0.4995208740234375,0.53096923828125,0.4998957079796598,0.49974328118070105,0.22110071490208505,0.15037257875215046,0.20646149526045235
0.61625,0.5825,0.68,0.56125,0.71,0.43375,0.88,0.7725,0.81875,0.7625,0.755,0.74,0.4962188720703125,0.499505615234375,0.5309967041015625,0.4998716405903505,0.49972723625449483,0.22110071490208505,0.15037257875215046,0.20646149526045235
0.61625,0.5825,0.68,0.56125,0.71,0.43375,0.88,0.7725,0.81875,0.7625,0.755,0.74,0.4962432861328125,0.49952392578125,0.531005859375,0.49982350581173196,0.4997192137913918,0.22332975075589295,0.1508238845269946,0.2049133829962858
0.61625,0.5825,0.68,0.56125,0.71,0.43375,0.88,0.7725,0.81875,0.7625,0.755,0.74,0.4962921142578125,0.499530029296875,0.530999755859375,0.49981548334862885,0.49966305654967014,0.22310925295167644,0.15071004519938214,0.20455405859720802
0.61625,0.5825,0.68,0.56125,0.71,0.43375,0.88,0.7725,0.81875,0.7625,0.755,0.74,0.4962646484375,0.499505615234375,0.5310211181640625,0.4998074608855258,0.4996871239389794,0.22155444732309384,0.15059715958616562,0.20346880815793164
0.61625,0.5825,0.68,0.5615,0.70975,0.43375,0.88,0.77225,0.8192499999999999,0.7635,0.7545000000000001,0.7404999999999999,0.4961944580078125,0.4995086669921875,0.5309906005859375,0.49983152827483507,0.49970316886518557,0.22155444732309384,0.15059715958616562,0.20346880815793164
0.61625,0.5825,0.68,0.56175,0.7095,0.43375,0.88,0.772,0.81975,0.7645000000000001,0.754,0.741,0.49617919921875,0.49951171875,0.53096923828125,0.4997994384224227,0.49975130364380416,0.22132970483285244,0.15003284775840148,0.20374149499668323
0.61625,0.5825,0.68,0.562,0.7092499999999999,0.43375,0.88,0.7717499999999999,0.82025,0.7655,0.7535,0.7415,0.496160888671875,0.4994720458984375,0.530938720703125,0.4997994384224227,0.49970316886518557,0.22022013674422677,0.15025850134605442,0.20283142371806245
0.61625,0.5825,0.68,0.56225,0.7090000000000001,0.43375,0.88,0.7715000000000001,0.82075,0.7665000000000001,0.753,0.742,0.496112060546875,0.4994537353515625,0.5309234619140625,0.4998395507379382,0.49961492177105155,0.219325411469286,0.15003284775840148,0.2036515442111112
0.61625,0.5825,0.68,0.5625,0.70875,0.43375,0.88,0.77125,0.82125,0.7675,0.7525,0.7425,0.4961334228515625,0.499432373046875,0.5308929443359375,0.4998796630534536,0.4994624949799349,0.219325411469286,0.15003284775840148,0.2036515442111112
0.61625,0.5825,0.68,0.5625,0.70875,0.43375,0.88,0.77125,0.82125,0.7675,0.7525,0.7425,0.4961212158203125,0.4993927001953125,0.530841064453125,0.49984757320104123,0.4992619333945155,0.22021306318568548,0.15048451205143268,0.20447344503047302
0.61625,0.5825,0.68,0.5625,0.70875,0.43375,0.88,0.77125,0.82125,0.7675,0.7525,0.7425,0.4961578369140625,0.49945068359375,0.53082275390625,0.49984757320104123,0.49898916965685247,0.22176786881426808,0.15093569878703506,0.20420201086476067
0.61625,0.5825,0.68,0.5625,0.70875,0.43375,0.88,0.77125,0.82125,0.7675,0.7525,0.7425,0.4961578369140625,0.4994476318359375,0.530853271484375,0.49982350581173196,0.49885278778409986,0.22199544293152682,0.15127447606638805,0.2053917447080196
0.61625,0.5825,0.68,0.5625,0.70875,0.43375,0.88,0.77125,0.82125,0.7675,0.7525,0.7425,0.496185302734375,0.499468994140625,0.5308746337890625,0.4997673485700103,0.49879663053453616,0.22065971929365205,0.15172542472350686,0.20447985857833506
0.61625,0.5825,0.68,0.56225,0.7090000000000001,0.43375,0.88,0.7705,0.8215,0.7675,0.75275,0.7425,0.496240234375,0.499462890625,0.5309234619140625,0.4996791014758763,0.49889290008393117,0.21999822588100262,0.1525147935422533,0.20384332517357154
0.61625,0.5825,0.68,0.562,0.7092499999999999,0.43375,0.88,0.7697499999999999,0.82175,0.7675,0.753,0.7425,0.496319580078125,0.4995025634765625,0.5310272216796875,0.49965503408656703,0.49910950659555675,0.21534370867181146,0.15725160445186429,0.19628037298043408
0.61625,0.5825,0.68,0.56175,0.7095,0.43375,0.88,0.769,0.8220000000000001,0.7675,0.75325,0.7425,0.4962799072265625,0.4994354248046875,0.5310699462890625,0.49974328118070105,0.4993902927963229,0.21445322532839464,0.15826793769038494,0.19636351606057315
0.61625,0.5825,0.68,0.5615,0.70975,0.43375,0.88,0.76825,0.8222499999999999,0.7675,0.7535,0.7425,0.496240234375,0.4994354248046875,0.53104248046875,0.499911752905866,0.49963096668941565,0.21400656922042807,0.1596218564153791,0.19745393600585995
0.61625,0.5825,0.68,0.56125,0.71,0.43375,0.88,0.7675,0.8225,0.7675,0.75375,0.7425,0.4962005615234375,0.499395751953125,0.5310272216796875,0.500080224631031,0.49983152827483507,0.21400374034791178,0.15950908984140436,0.1979098347639388
0.6164999999999999,0.58275,0.68025,0.5615,0.71025,0.43424999999999997,0.8817499999999999,0.769,0.82325,0.7685,0.7545000000000001,0.7432500000000001,0.496148681640625,0.499468994140625,0.5310302734375,0.5002727637455051,0.500080224631031,0.21311608863151224,0.16108890023253503,0.1989978811326124
0.61675,0.583,0.6805,0.56175,0.7105,0.43475,0.8835,0.7705,0.8240000000000001,0.7695000000000001,0.7552500000000001,0.7440000000000001,0.4961212158203125,0.4994781494140625,0.530999755859375,0.5003850782289484,0.5003449659055909,0.2095598185118795,0.1627805248837061,0.19417326069506077
0.617,0.58325,0.6807500000000001,0.562,0.71075,0.43524999999999997,0.8852500000000001,0.772,0.82475,0.7705,0.7559999999999999,0.7447499999999999,0.4962066650390625,0.4996002197265625,0.53109130859375,0.5002888086717113,0.500882470925656,0.2095598185118795,0.1627805248837061,0.19417326069506077
0.61725,0.5835,0.6809999999999999,0.56225,0.711,0.43575,0.887,0.7735,0.8255,0.7715000000000001,0.7567499999999999,0.7454999999999999,0.4962890625,0.4995758056640625,0.5312713623046875,0.500088247094134,0.5014520658138176,0.2073463455886628,0.16379518877191843,0.1931775640067229
0.6175,0.58375,0.68125,0.5625,0.71125,0.43625,0.88875,0.775,0.82625,0.7725,0.7575,0.74625,0.4963958740234375,0.499468994140625,0.5313995361328125,0.4997432811885431,0.5023586041523092,0.20402047845880514,0.1651474395470659,0.18698491182944005
0.6175,0.58375,0.68125,0.5625,0.71125,0.43625,0.88875,0.775,0.82625,0.7725,0.7575,0.74625,0.4964874267578125,0.4993621826171875,0.531573486328125,0.4993421580333885,0.5036742880541638,0.2020161850952387,0.16593621316960344,0.18461769064742142
0.61775,0.584,0.6815000000000001,0.563,0.7134999999999999,0.4365,0.8917499999999999,0.7775,0.8284999999999999,0.7745000000000001,0.7597499999999999,0.75,0.4965057373046875,0.499420166015625,0.531866455078125,0.4988206979160033,0.5055354995254496,0.2015879235448806,0.16740254275130861,0.18262011964201366
0.618,0.5842499999999999,0.68175,0.5635,0.71575,0.43674999999999997,0.8947499999999999,0.78,0.83075,0.7765000000000001,0.762,0.75375,0.49644775390625,0.499365234375,0.5323150634765625,0.4979302044958759,0.5081187325662244,0.1989391155127645,0.17010787757629608,0.17269583561392096
0.6182500000000001,0.5845,0.682,0.564,0.718,0.43700000000000006,0.89775,0.7825,0.833,0.7785,0.76425,0.7575,0.49637451171875,0.4993927001953125,0.53258056640625,0.4969273965609368,0.5113517851105077,0.1989391155127645,0.17010787757629608,0.17269583561392096
0.6185,0.58475,0.6822499999999999,0.5645,0.7202500000000001,0.43725,0.90075,0.785,0.83525,0.7805,0.7665000000000001,0.76125,0.496240234375,0.4994873046875,0.5327911376953125,0.49618932995545234,0.5147131971271772,0.19339836240068245,0.17394219457499885,0.16295502186537342
0.61875,0.585,0.6825,0.565,0.7225,0.4375,0.90375,0.7875,0.8375,0.7825,0.76875,0.765,0.496099853515625,0.499517822265625,0.532928466796875,0.49550742059953157,0.5175050143184217,0.19207112813485763,0.17653714641177062,0.16040728111917255
0.61875,0.585,0.6825,0.565,0.7225,0.4375,0.90375,0.7875,0.8375,0.7825,0.76875,0.765,0.4959136962890625,0.4993865966796875,0.532916259765625,0.4947051743205907,0.5202166068315828,0.1936315942629738,0.17755181170044465,0.1583117282957587
0.61875,0.585,0.6825,0.565,0.7225,0.4375,0.90375,0.7875,0.8375,0.7825,0.76875,0.765,0.4956939697265625,0.49937744140625,0.53258056640625,0.4944484555640284,0.5220778184597102,0.19186195132970835,0.1778893985873798,0.1556742968504414
0.61875,0.585,0.6825,0.565,0.7225,0.4375,0.90375,0.7875,0.8375,0.7825,0.76875,0.765,0.495501708984375,0.49942626953125,0.532373046875,0.4943521861008964,0.5232410757900267,0.18764560085643386,0.17935501113271093,0.15130696249053566
0.61875,0.585,0.6825,0.565,0.7225,0.4375,0.90375,0.7875,0.8375,0.7825,0.76875,0.765,0.495318603515625,0.499395751953125,0.532135009765625,0.49456077012589256,0.5240914566750602,0.18764560085643386,0.17935501113271093,0.15130696249053566
0.61975,0.58675,0.68325,0.5665,0.7234999999999999,0.44075000000000003,0.9065000000000001,0.7907500000000001,0.84,0.78425,0.7705,0.768,0.4950927734375,0.4992950439453125,0.5319305419921875,0.49446450053728713,0.5251664665583486,0.186759362199042,0.1801445003911608,0.15049515728370208
0.62075,0.5885,0.684,0.568,0.7245,0.444,0.90925,0.794,0.8425,0.7859999999999999,0.77225,0.7709999999999999,0.494970703125,0.4992279052734375,0.531756591796875,0.49469715192806635,0.5256879264639975,0.18320026320689295,0.17946634923578422,0.14722175863953335
0.62175,0.5902499999999999,0.68475,0.5695,0.7254999999999999,0.44725000000000004,0.912,0.7972499999999999,0.845,0.7877500000000001,0.774,0.774,0.494818115234375,0.4991973876953125,0.531512451171875,0.4947693540881521,0.5262093863696463,0.15878274403410617,0.17923318917359043,0.12906192445891898
0.62275,0.5920000000000001,0.6855,0.5710000000000001,0.7265,0.45049999999999996,0.91475,0.8005,0.8475,0.7895,0.77575,0.777,0.494647216796875,0.4990631103515625,0.5313873291015625,0.49482551133771585,0.5268832733644111,0.15878274403410617,0.17923318917359043,0.12906192445891898
0.6245,0.5954999999999999,0.687,0.573,0.7275,0.45525,0.9195,0.8075,0.8515,0.7922499999999999,0.77925,0.78175,0.49422607421875,0.4989776611328125,0.5320770263671875,0.4986843162079346,0.5294183719873035,0.1548024570501403,0.18013449129161913,0.12288010557300512
0.62525,0.5972500000000001,0.6877500000000001,0.5735,0.7275,0.45675,0.9215000000000001,0.81125,0.853,0.79325,0.7809999999999999,0.7835,0.4938690185546875,0.4992034912109375,0.5327301025390625,0.5026554355145441,0.532996390923387,0.15613252018848148,0.182503789540738,0.12379471110222279
0.626,0.599,0.6884999999999999,0.574,0.7275,0.45825000000000005,0.9235,0.815,0.8545,0.79425,0.7827500000000001,0.78525,0.493603515625,0.4997589111328125,0.5329833984375,0.5060569598075186,0.5385800258077696,0.15814105823807284,0.18453669409626294,0.12881312644602783
0.6267499999999999,0.60075,0.6892499999999999,0.5745,0.7275,0.45975,0.9255,0.81875,0.856,0.79525,0.7845,0.787,0.4931060791015625,0.5000640869140625,0.5335174560546875,0.5086000805719885,0.5449017273290051,0.15814105823807284,0.18453669409626294,0.12881312644602783
0.6275,0.6025,0.69,0.575,0.7275,0.46125,0.9275,0.8225,0.8575,0.79625,0.78625,0.78875,0.4926727294921875,0.501141357421875,0.5335357666015625,0.5103168876289977,0.5515363042917362,0.1619192419754307,0.1870211425051156,0.1358331878666527
0.6275,0.6025,0.69,0.575,0.7275,0.46125,0.9275,0.8225,0.8575,0.79625,0.78625,0.78875,0.4922607421875,0.502154541015625,0.5325408935546875,0.5069955877945282,0.5562053781471037,0.1645906892511802,0.18668343657893866,0.13829619279088048
0.6275,0.6022500000000001,0.69025,0.5742499999999999,0.72875,0.46049999999999996,0.9285,0.8265,0.858,0.7975,0.7875,0.78925,0.4918060302734375,0.5024383544921875,0.5309906005859375,0.5032972322804764,0.5595667903519832,0.1645906892511802,0.18668343657893866,0.13829619279088048
0.6275,0.602,0.6905,0.5735,0.73,0.45975,0.9295,0.8305,0.8584999999999999,0.79875,0.78875,0.78975,0.491259765625,0.502392578125,0.529840087890625,0.5001684717800595,0.5609225866085638,0.19459141115079953,0.18940140356817212,0.16438313242551328
0.6275,0.60175,0.69075,0.57275,0.73125,0.45899999999999996,0.9305,0.8345,0.8590000000000001,0.8,0.79,0.79025,0.4910400390625,0.502374267578125,0.5291046142578125,0.49707982343047435,0.5611793051769158,0.19925724660455693,0.19165948415392114,0.16976231990627708
0.6275,0.6015,0.691,0.5720000000000001,0.7325,0.45825000000000005,0.9315000000000001,0.8384999999999999,0.8595,0.80125,0.79125,0.7907500000000001,0.4903656005859375,0.501702880859375,0.5276153564453125,0.49406337736644834,0.5605294854851974,0.20503830789197255,0.19436934667148148,0.1748687405659501
0.6275,0.60125,0.69125,0.57125,0.73375,0.4575,0.9325,0.8425,0.86,0.8025,0.7925,0.79125,0.49002685546875,0.500872802734375,0.5267059326171875,0.4914801443570418,0.5588287227113432,0.21281517317090476,0.19685391411957592,0.1806169953304498
0.6275,0.60125,0.69125,0.57125,0.73375,0.4575,0.9325,0.8425,0.86,0.8025,0.7925,0.79125,0.4894775390625,0.500396728515625,0.525433349609375,0.4891937423491342,0.5559727253761171,0.22149101116530365,0.20114370746797036,0.1851773955489558
0.6275,0.60125,0.69125,0.57125,0.73375,0.4575,0.9325,0.8425,0.86,0.8025,0.7925,0.79125,0.4888214111328125,0.499932861328125,0.5244140625,0.4868912953052312,0.5513116737878005,0.22926787368973484,0.20486918898860065,0.1896469277743452
0.6275,0.60125,0.69125,0.57125,0.73375,0.4575,0.9325,0.8425,0.86,0.8025,0.7925,0.79125,0.488043212890625,0.499072265625,0.5219879150390625,0.4856237461192584,0.5451103097855838,0.24950300538644873,0.2125464008137231,0.20031654075255115
0.62725,0.6004999999999999,0.69075,0.57075,0.7354999999999999,0.45625,0.93325,0.8415,0.8597499999999999,0.80375,0.7925,0.79125,0.48758544921875,0.49814453125,0.5213104248046875,0.4857841952244785,0.5356758931136105,0.26261852053085494,0.2150313253795429,0.20844059149632777
0.627,0.59975,0.69025,0.57025,0.73725,0.455,0.934,0.8405,0.8595,0.805,0.7925,0.79125,0.4869842529296875,0.4977020263671875,0.520361328125,0.4863939023262085,0.525190534041763,0.27484213651833567,0.21413085793666842,0.2153740516076147
0.6267499999999999,0.599,0.68975,0.56975,0.7390000000000001,0.45375,0.93475,0.8395,0.85925,0.80625,0.7925,0.79125,0.486724853515625,0.4977783203125,0.5201934814453125,0.48727637328323287,0.5135659850132241,0.2888453033791414,0.21198971449974163,0.22212415306938368
0.6265,0.5982500000000001,0.6892499999999999,0.5692499999999999,0.74075,0.4525,0.9355,0.8384999999999999,0.8590000000000001,0.8075,0.7925,0.79125,0.486572265625,0.4978424072265625,0.5197723388671875,0.4881748892762526,0.5037464902377758,0.350137184065485,0.19417383662077212,0.27321944977956536
0.62625,0.5975,0.68875,0.56875,0.7425,0.45125,0.93625,0.8375,0.85875,0.80875,0.7925,0.79125,0.4863372802734375,0.498248291015625,0.520745849609375,0.4889049333951077,0.49354191710790557,0.3585684664440244,0.1904522861960441,0.28252110064295416
0.62625,0.5975,0.68875,0.56875,0.7425,0.45125,0.93625,0.8375,0.85875,0.80875,0.7925,0.79125,0.48631591796875,0.4984588623046875,0.522381591796875,0.48938628121266164,0.4858965096530272,0.3585684664440244,0.1904522861960441,0.28252110064295416
0.62625,0.5975,0.68875,0.56875,0.7425,0.45125,0.93625,0.8375,0.85875,0.80875,0.7925,0.79125,0.4866546630859375,0.4980865478515625,0.5261810302734375,0.49005214568942873,0.4816205367406581,0.3805322072727619,0.18165645841447342,0.30769503554597855
0.62625,0.5975,0.68875,0.56875,0.7425,0.45125,0.93625,0.8375,0.85875,0.80875,0.7925,0.79125,0.48701171875,0.4975311279296875,0.5311676025390625,0.4911351782161883,0.4824067382345504,0.39229502003519345,0.17703265355778244,0.32091898982731387
0.625,0.59475,0.6875,0.568,0.7425,0.4465,0.9359999999999999,0.83625,0.8595,0.8079999999999999,0.7935,0.79125,0.487530517578125,0.49720458984375,0.5379974365234375,0.49254713172233255,0.48778981117277753,0.4033779420728662,0.17263533556343688,0.3344160239541467
0.62375,0.5920000000000001,0.68625,0.56725,0.7425,0.44175,0.9357500000000001,0.835,0.8602500000000001,0.8072499999999999,0.7945,0.79125,0.4881561279296875,0.49700927734375,0.5450927734375,0.4932370636276194,0.5017408743600555,0.4450947824341417,0.15583436105162496,0.38439018577454775
0.6225,0.5892499999999999,0.685,0.5665,0.7425,0.43700000000000006,0.9355,0.83375,0.861,0.8065000000000001,0.7955,0.79125,0.4886627197265625,0.497161865234375,0.5518218994140625,0.4924027275276345,0.5246851192426883,0.4450947824341417,0.15583436105162496,0.38439018577454775
0.62125,0.5865,0.68375,0.56575,0.7425,0.43225,0.93525,0.8325,0.86175,0.8057500000000001,0.7965000000000001,0.79125,0.489031982421875,0.4983154296875,0.5566162109375,0.4906377856135858,0.5539751321967625,0.46307540465189606,0.151776416933303,0.4029905822435507
0.62,0.58375,0.6825,0.565,0.7425,0.4275,0.935,0.83125,0.8625,0.805,0.7975,0.79125,0.4891754150390625,0.4997650146484375,0.5604888916015625,0.48870437195084593,0.5879021294361069,0.5902472198793968,0.16794999442105085,0.5553257683409193
0.62,0.58375,0.6825,0.565,0.7425,0.4275,0.935,0.83125,0.8625,0.805,0.7975,0.79125,0.4891571044921875,0.5012451171875,0.5624420166015625,0.4860248691332555,0.6237304481331526,0.5902472198793968,0.16794999442105085,0.5553257683409193
0.62,0.58375,0.6825,0.565,0.7425,0.4275,0.935,0.83125,0.8625,0.805,0.7975,0.79125,0.488720703125,0.5023895263671875,0.5637054443359375,0.4835298832258251,0.6585800294214035,0.6100088087839847,0.17641728930037046,0.5787537802696003
0.62,0.58375,0.6825,0.565,0.7425,0.4275,0.935,0.83125,0.8625,0.805,0.7975,0.79125,0.487713623046875,0.5035247802734375,0.56490478515625,0.4799999996486745,0.6892659497163659,0.6348616658201718,0.19887794114858698,0.6243192505311872
0.61975,0.58625,0.6827500000000001,0.5665,0.74625,0.43274999999999997,0.937,0.83475,0.86375,0.807,0.797,0.79,0.4865509033203125,0.5040496826171875,0.5658935546875,0.47712795803029334,0.7123064628073967,0.6430653768359534,0.21501602533581926,0.6455491216412873
0.6195,0.58875,0.6829999999999999,0.568,0.75,0.43799999999999994,0.9390000000000001,0.83825,0.865,0.809,0.7965000000000001,0.78875,0.4844696044921875,0.5042938232421875,0.5673828125,0.47109506590224126,0.7304051389406062,0.6474909041143773,0.23374869443886626,0.664582432590978
0.61925,0.59125,0.68325,0.5695,0.75375,0.44325000000000003,0.941,0.84175,0.86625,0.8109999999999999,0.7959999999999999,0.7875,0.482171630859375,0.5051727294921875,0.56800537109375,0.4660890493023318,0.7400401185625222,0.6474909041143773,0.23374869443886626,0.664582432590978
0.619,0.59375,0.6835,0.5710000000000001,0.7575,0.4485,0.943,0.8452500000000001,0.8675,0.813,0.7955,0.78625,0.4803741455078125,0.5063751220703125,0.56851806640625,0.46163658242911515,0.7442117978077127,0.6445720751047529,0.29310369806510267,0.7046544856306851
0.61875,0.59625,0.68375,0.5725,0.76125,0.45375,0.945,0.84875,0.86875,0.815,0.795,0.785,0.4779205322265625,0.508111572265625,0.56849365234375,0.4640914558720305,0.7411552417886396,0.4084930256200214,0.36628400886191415,0.4724118237938086
0.61875,0.59625,0.68375,0.5725,0.76125,0.45375,0.945,0.84875,0.86875,0.815,0.795,0.785,0.4777252197265625,0.5094024658203125,0.564892578125,0.46762936196717875,0.7313517945586545,0.4084930256200214,0.36628400886191415,0.4724118237938086
0.61875,0.59625,0.68375,0.5725,0.76125,0.45375,0.945,0.84875,0.86875,0.815,0.795,0.785,0.4820159912109375,0.5112274169921875,0.55933837890625,0.4719855593772633,0.7130365111923473,0.3809772134346356,0.3512630029242186,0.42748947598566356
0.61875,0.59625,0.68375,0.5725,0.76125,0.45375,0.945,0.84875,0.86875,0.815,0.795,0.785,0.4933837890625,0.5135009765625,0.54193115234375,0.47400721985966415,0.6835379145269604,0.32461410460301243,0.31241943257811094,0.3320777575297468
0.62,0.6025,0.6835,0.57875,0.7602500000000001,0.46875,0.9440000000000001,0.84775,0.8684999999999999,0.812,0.7922499999999999,0.7827500000000001,0.5202117919921875,0.5212799072265625,0.5351409912109375,0.4972242278447509,0.5965262780639821,0.16846509046260535,0.14918426461940568,0.052222930884288685
0.62125,0.60875,0.68325,0.585,0.75925,0.48375,0.943,0.84675,0.8682500000000001,0.809,0.7895,0.7805,0.5419097900390625,0.52767333984375,0.529339599609375,0.5192699562324704,0.5101644612927221,0.16846509046260535,0.14918426461940568,0.052222930884288685
0.6225,0.615,0.6829999999999999,0.59125,0.75825,0.49875,0.9420000000000001,0.84575,0.868,0.8059999999999999,0.78675,0.77825,0.5590362548828125,0.5333038330078125,0.525860595703125,0.5418692345978294,0.4306538292191845,0.16537528682205627,0.14105872580140708,0.04246383915728812
0.62375,0.62125,0.6827500000000001,0.5975,0.75725,0.51375,0.941,0.8447499999999999,0.86775,0.8029999999999999,0.784,0.7759999999999999,0.5712310791015625,0.5374267578125,0.5240692138671875,0.5691776991575977,0.35618932558270444,0.16537528682205627,0.14105872580140708,0.04246383915728812
0.626,0.6285000000000001,0.68325,0.6045,0.7567499999999999,0.53075,0.9395,0.845,0.86625,0.8,0.78075,0.77375,0.56334228515625,0.53543701171875,0.5387939453125,0.6048535930240486,0.2817248219462245,0.16853159237999696,0.10573882204679078,0.02714902856946428
0.627,0.6295000000000001,0.684,0.60525,0.75725,0.53275,0.9390000000000001,0.84625,0.865,0.8,0.7802500000000001,0.77375,0.536505126953125,0.5259246826171875,0.5419921875,0.6190854430865123,0.2642037651012753,0.16853159237999696,0.10573882204679078,0.02714902856946428
0.628,0.6305,0.68475,0.606,0.75775,0.5347500000000001,0.9384999999999999,0.8475,0.86375,0.8,0.7797499999999999,0.77375,0.513836669921875,0.5158538818359375,0.54239501953125,0.6276775018933434,0.25275570895921806,0.13139710681098737,0.13732967030259985,0.012060571454076994
0.629,0.6315,0.6855,0.60675,0.75825,0.53675,0.938,0.84875,0.8625,0.8,0.77925,0.77375,0.4904998779296875,0.505548095703125,0.541827392578125,0.6329963954404293,0.2443240975009795,0.11674093315508113,0.14646868401685462,0.001093635925818061
0.63,0.6325,0.68625,0.6075,0.75875,0.53875,0.9375,0.85,0.86125,0.8,0.77875,0.77375,0.466497802734375,0.4955596923828125,0.539251708984375,0.6324909805707759,0.24503809934425397,0.11428291012500685,0.1465818077085547,0.0010961867294850625
0.63,0.6325,0.68625,0.6075,0.75875,0.53875,0.9375,0.85,0.86125,0.8,0.77875,0.77375,0.4522003173828125,0.4906829833984375,0.5315826416015625,0.6236502254626435,0.26941034289449983,0.11762434293995667,0.14624350658616886,0.0009135450439575031
0.63,0.6325,0.68625,0.6075,0.75875,0.53875,0.9375,0.85,0.86125,0.8,0.77875,0.77375,0.4413909912109375,0.487823486328125,0.524822998046875,0.6150581666558124,0.2943521794508064,0.11762434293995667,0.14624350658616886,0.0009135450439575031
0.63075,0.63225,0.68675,0.6072500000000001,0.75825,0.5397500000000001,0.9372499999999999,0.8490000000000001,0.8604999999999999,0.8007500000000001,0.7797499999999999,0.77625,0.4306243896484375,0.48631591796875,0.5189971923828125,0.608391500122984,0.3266345730479612,0.1182872521661148,0.1462444603005648,0.0010916496018256194
0.6315,0.632,0.6872499999999999,0.607,0.75775,0.5407500000000001,0.937,0.848,0.8597499999999999,0.8015000000000001,0.78075,0.77875,0.4202392578125,0.4846954345703125,0.514593505859375,0.60621741154768,0.3646851171849247,0.11605821631230691,0.1460185686344283,0.0012752228802105868
0.63225,0.6317499999999999,0.6877500000000001,0.60675,0.75725,0.54175,0.93675,0.847,0.8590000000000001,0.8022499999999999,0.78175,0.78125,0.4103973388671875,0.4818115234375,0.51075439453125,0.6085599697386275,0.3987805837889657,0.11605821631230691,0.1460185686344283,0.0012752228802105868
0.633,0.6315,0.68825,0.6065,0.7567499999999999,0.54275,0.9365000000000001,0.846,0.8582500000000001,0.8029999999999999,0.7827500000000001,0.78375,0.4037200927734375,0.4766754150390625,0.5064544677734375,0.6109506635394547,0.428383472937376,0.11738686363713939,0.14624481741829015,0.00200151718441704
0.63375,0.63125,0.68875,0.60625,0.75625,0.54375,0.93625,0.845,0.8575,0.80375,0.78375,0.78625,0.3986358642578125,0.470220947265625,0.50166015625,0.6042759747395754,0.4662655439454409,0.11738686363713939,0.14624481741829015,0.00200151718441704
0.63375,0.63125,0.68875,0.60625,0.75625,0.54375,0.93625,0.845,0.8575,0.80375,0.78375,0.78625,0.39847412109375,0.4639892578125,0.49810791015625,0.597729644220085,0.49359807480446827,0.11627446667599746,0.14692213389851258,0.0011860419965800304
0.63375,0.63125,0.68875,0.60625,0.75625,0.54375,0.93625,0.845,0.8575,0.80375,0.78375,0.78625,0.3566162109375,0.491845703125,0.499725341796875,0.5810268766824979,0.5144484557898805,0.11627446667599746,0.14692213389851258,0.0011860419965800304
0.63225,0.62975,0.6877500000000001,0.60425,0.75275,0.542,0.9335,0.8445,0.8565,0.8015000000000001,0.78125,0.7822499999999999,0.3892364501953125,0.4985595703125,0.5133514404296875,0.4745286777577386,0.49450461155885816,0.11538398608708163,0.1460196399876044,0.0014571159540596522
0.63075,0.62825,0.68675,0.6022500000000001,0.74925,0.54025,0.9307500000000001,0.8440000000000001,0.8554999999999999,0.79925,0.77875,0.77825,0.4108978271484375,0.4771087646484375,0.570654296875,0.38993982817893974,0.48369835384525567,0.11538398608708163,0.1460196399876044,0.0014571159540596522
0.62925,0.6267499999999999,0.6857500000000001,0.60025,0.74575,0.5385,0.9279999999999999,0.8434999999999999,0.8545,0.797,0.77625,0.77425,0.4294281005859375,0.4783416748046875,0.5850067138671875,0.36354592414629305,0.47623746323780064,0.11627305361698978,0.14590687341362965,0.002187366219288134
0.62775,0.62525,0.68475,0.5982500000000001,0.74225,0.53675,0.92525,0.843,0.8534999999999999,0.79475,0.77375,0.7702500000000001,0.447003173828125,0.48692626953125,0.591644287109375,0.3460489318439755,0.4725551528224809,0.11627305361698978,0.14624505549677375,0.002005303974160451
0.62625,0.62375,0.68375,0.59625,0.73875,0.535,0.9225,0.8425,0.8525,0.7925,0.77125,0.76625,0.5057861328125,0.4643096923828125,0.5925994873046875,0.3360770102303579,0.4636341740086839,0.11537974140105667,0.14590711149211322,0.0011841511910646257
0.62625,0.62375,0.68375,0.59625,0.73875,0.535,0.9225,0.8425,0.8525,0.7925,0.77125,0.76625,0.4916748046875,0.46453857421875,0.58262939453125,0.41459285835342446,0.49135980746539004,0.1169387917156642,0.14669695786828849,0.0015493166025547294
0.62625,0.62375,0.68375,0.59625,0.73875,0.535,0.9225,0.8425,0.8525,0.7925,0.77125,0.76625,0.4899749755859375,0.4930938720703125,0.5322723388671875,0.4720978728726036,0.5004251905679902,0.11382351995896542,0.14658418989385208,0.0013641471298606565
0.62625,0.62375,0.68375,0.59625,0.73875,0.535,0.9225,0.8425,0.8525,0.7925,0.77125,0.76625,0.4908782958984375,0.499932861328125,0.527032470703125,0.4823425583415155,0.4974969913863618,0.11760594562784724,0.14703597322612505,0.0011885024604826008
0.623,0.619,0.6805,0.59375,0.73675,0.524,0.92,0.8377500000000001,0.84625,0.78375,0.76725,0.7404999999999999,0.4905426025390625,0.4999298095703125,0.528326416015625,0.48609707113649947,0.4924829518920344,0.11760594562784724,0.14703597322612505,0.0011885024604826008
0.61975,0.61425,0.6772499999999999,0.59125,0.7347499999999999,0.513,0.9175,0.833,0.84,0.775,0.76325,0.71475,0.4931396484375,0.4992340087890625,0.530487060546875,0.48942639336349325,0.49127155998699373,0.1178236145595474,0.14669719594677205,0.0010047254860682832
0.6164999999999999,0.6095,0.674,0.58875,0.73275,0.502,0.915,0.82825,0.83375,0.76625,0.75925,0.6890000000000001,0.495587158203125,0.4979095458984375,0.5323883056640625,0.4927958278981604,0.4904532687347941,0.11493449835209776,0.1459073495705968,0.0009126698415262994
0.6132500000000001,0.60475,0.6707500000000001,0.58625,0.73075,0.491,0.9125,0.8234999999999999,0.8275,0.7575,0.7552500000000001,0.66325,0.4967620849609375,0.4983642578125,0.5327972412109375,0.49710389070215233,0.4930525468743011,0.11493449835209776,0.1459073495705968,0.0009126698415262994
0.61,0.6,0.6675,0.58375,0.72875,0.48,0.91,0.81875,0.82125,0.74875,0.75125,0.6375,0.49683837890625,0.4991424560546875,0.531768798828125,0.4999679101475876,0.4957962293967163,0.11315211860625644,0.14602047466275855,0.0015488205969691321
0.61,0.6,0.6675,0.58375,0.72875,0.48,0.91,0.81875,0.82125,0.74875,0.75125,0.6375,0.496466064453125,0.4992767333984375,0.5313232421875,0.500962695572371,0.49707180097521336,0.11269980199875626,0.1459088984812017,0.001548650850278004
0.61,0.6,0.6675,0.58375,0.72875,0.48,0.91,0.81875,0.82125,0.74875,0.75125,0.6375,0.496258544921875,0.498846435546875,0.53126220703125,0.5023104693423223,0.4977055755368314,0.11714938708882311,0.14647356742669115,0.0012753396889505822
0.61,0.6,0.6675,0.58375,0.72875,0.48,0.91,0.81875,0.82125,0.74875,0.75125,0.6375,0.4963104248046875,0.4990081787109375,0.5314544677734375,0.5035619735550363,0.49827517042499303,0.11714938708882311,0.14647356742669115,0.0012753396889505822
0.611,0.60175,0.669,0.58475,0.7302500000000001,0.48625,0.91,0.8175,0.81975,0.748,0.7509999999999999,0.6367499999999999,0.4965362548828125,0.499139404296875,0.531683349609375,0.5046209386532762,0.49893301241513077,0.11625324324587268,0.14647332934820761,0.0005483658225671032
0.612,0.6035,0.6705,0.58575,0.73175,0.4925,0.91,0.81625,0.81825,0.74725,0.75075,0.636,0.4968505859375,0.4994171142578125,0.5312896728515625,0.5049659045745513,0.5002085840563646,0.11580941601042244,0.14636032469574928,0.0015488551217198727
0.613,0.60525,0.672,0.58675,0.7332500000000001,0.49875,0.91,0.815,0.81675,0.7465,0.7505,0.63525,0.49698486328125,0.499224853515625,0.531158447265625,0.503995186539077,0.5024949860015355,0.11580941601042244,0.14703764117597173,0.002279873562652265
0.614,0.607,0.6735,0.58775,0.7347499999999999,0.505,0.91,0.81375,0.81525,0.74575,0.7502500000000001,0.6345000000000001,0.4969879150390625,0.499102783203125,0.5311187744140625,0.5031528279210944,0.5047894104333357,0.1164751568635978,0.1459093760386305,0.001460692718236079
0.615,0.60875,0.675,0.58875,0.73625,0.51125,0.91,0.8125,0.81375,0.745,0.75,0.63375,0.496881103515625,0.499017333984375,0.531085205078125,0.5023666265526756,0.5067549138857512,0.1162546590593813,0.14681174950983525,0.001735180022738634
0.615,0.60875,0.675,0.58875,0.73625,0.51125,0.91,0.8125,0.81375,0.745,0.75,0.63375,0.4967315673828125,0.4990631103515625,0.531182861328125,0.5015724027289957,0.509097473174591,0.1153670045884808,0.14658597688294053,0.001274855767027743
0.615,0.60875,0.675,0.58875,0.73625,0.51125,0.91,0.8125,0.81375,0.745,0.75,0.63375,0.496514892578125,0.4990997314453125,0.5314453125,0.5011953469553082,0.5119213801868795,0.11514084903923172,0.14703728405824637,0.0010947712147048193
0.6164999999999999,0.60975,0.6759999999999999,0.5895,0.7375,0.51,0.9125,0.81325,0.82,0.7495,0.75275,0.653,0.4962860107421875,0.4994781494140625,0.531439208984375,0.5014761331482323,0.5135900526377961,0.11514084903923172,0.14703728405824637,0.0010947712147048193
0.618,0.61075,0.677,0.5902499999999999,0.73875,0.50875,0.915,0.8140000000000001,0.82625,0.754,0.7555,0.6722499999999999,0.4961700439453125,0.4994873046875,0.53131103515625,0.5009626955253186,0.5148174896102006,0.1162546590593813,0.14579636998571052,0.0028256074483881317
0.6195,0.61175,0.6779999999999999,0.591,0.74,0.5075,0.9175,0.81475,0.8325,0.7585,0.75825,0.6915,0.4960693359375,0.49970703125,0.531817626953125,0.49931809062839505,0.5166626562023326,0.11603981900019744,0.14669874485737694,0.0022816682742781147
0.621,0.61275,0.679,0.59175,0.74125,0.50625,0.92,0.8155,0.83875,0.763,0.7609999999999999,0.71075,0.4959625244140625,0.4994140625,0.5319366455078125,0.49755314877708307,0.518539912364562,0.11648081736313141,0.1459086604027181,0.001550465701341784
0.6225,0.61375,0.68,0.5925,0.7425,0.505,0.9225,0.81625,0.845,0.7675,0.76375,0.73,0.4957366943359375,0.4990386962890625,0.5323486328125,0.4958283192648128,0.5198074614250614,0.11514367791174802,0.14613443302961282,0.0012801466850782942
0.6225,0.61375,0.68,0.5925,0.7425,0.505,0.9225,0.81625,0.845,0.7675,0.76375,0.73,0.4955322265625,0.4986114501953125,0.5325714111328125,0.4951143200564797,0.5211953475026859,0.11514367791174802,0.14613443302961282,0.0012801466850782942
0.6225,0.61375,0.68,0.5925,0.7425,0.505,0.9225,0.81625,0.845,0.7675,0.76375,0.73,0.4953521728515625,0.4983978271484375,0.532781982421875,0.4950661852778611,0.5227356601675329,0.11670697566688149,0.14579565575025982,0.00137055895148516
0.6232500000000001,0.61475,0.6807500000000001,0.59325,0.7434999999999999,0.50325,0.9257500000000001,0.82025,0.8465,0.7717499999999999,0.76725,0.738,0.4951568603515625,0.4979736328125,0.5323577880859375,0.4961492177732523,0.5236582432126522,0.11581083182393108,0.14624708056434574,0.0021912295388956805
0.624,0.61575,0.6815000000000001,0.594,0.7445,0.5015,0.929,0.8242499999999999,0.848,0.7759999999999999,0.77075,0.746,0.4949798583984375,0.49825439453125,0.53204345703125,0.4970637785513207,0.5243241079403661,0.11581083182393108,0.14624708056434574,0.0021912295388956805
0.62475,0.61675,0.6822499999999999,0.59475,0.7454999999999999,0.49975,0.9322499999999999,0.82825,0.8495,0.7802500000000001,0.77425,0.754,0.4950408935546875,0.498663330078125,0.53157958984375,0.49747292414605215,0.5247492986338296,0.11692605765758933,0.1470363303438504,0.001732054381971848
0.6255,0.61775,0.6829999999999999,0.5954999999999999,0.7465,0.498,0.9355,0.8322499999999999,0.851,0.7845,0.77775,0.762,0.495050048828125,0.4992431640625,0.53115234375,0.4967348575091993,0.5249177702570474,0.11559599451924821,0.14624696152510397,0.001366029879600885
0.62625,0.61875,0.68375,0.59625,0.7475,0.49625,0.93875,0.83625,0.8525,0.78875,0.78125,0.77,0.4948333740234375,0.5002410888671875,0.5307281494140625,0.49509827503616843,0.5247252313307833,0.11559174983322325,0.1461339568726457,0.0020072028354510235
0.62625,0.61875,0.68375,0.59625,0.7475,0.49625,0.93875,0.83625,0.8525,0.78875,0.78125,0.77,0.494525146484375,0.501055908203125,0.530303955078125,0.4930766143341892,0.5242117936921854,0.11514792259777298,0.14590854136347634,0.001456924341693056
0.62625,0.61875,0.68375,0.59625,0.7475,0.49625,0.93875,0.83625,0.8525,0.78875,0.78125,0.77,0.4942352294921875,0.5012939453125,0.5302337646484375,0.49092659431666547,0.5233694348232559,0.11514792259777298,0.14590854136347634,0.001456924341693056
0.62625,0.61875,0.684,0.5965,0.748,0.49725,0.9405,0.8365,0.8532500000000001,0.79,0.7827500000000001,0.7717499999999999,0.493829345703125,0.500946044921875,0.530731201171875,0.4883834733639855,0.5227436824345838,0.11626173261792257,0.14579541767177623,0.0016402208466596107
0.62625,0.61875,0.68425,0.59675,0.7484999999999999,0.49825,0.9422499999999999,0.83675,0.8540000000000001,0.79125,0.78425,0.7735,0.4935699462890625,0.5004791259765625,0.530938720703125,0.4860890490262903,0.5225431207393751,0.11581507650995602,0.14613407591188746,0.0019151638778718983
0.62625,0.61875,0.6845,0.597,0.7490000000000001,0.49924999999999997,0.9440000000000001,0.8370000000000001,0.8547499999999999,0.7925,0.7857500000000001,0.7752500000000001,0.4935211181640625,0.4996246337890625,0.5310333251953125,0.48458082605701397,0.5229522663968433,0.11670838872588914,0.14647285319124045,0.0007274094536552857
0.62625,0.61875,0.68475,0.5972500000000001,0.7495,0.50025,0.94575,0.8372499999999999,0.8554999999999999,0.79375,0.7872499999999999,0.777,0.49334716796875,0.498980712890625,0.53099365234375,0.48350581592277875,0.5237464904087333,0.11447510818605633,0.1463597280990787,0.0013704640084206334
0.62625,0.61875,0.685,0.5975,0.75,0.50125,0.9475,0.8375,0.85625,0.795,0.78875,0.77875,0.4929901123046875,0.4985748291015625,0.5304412841796875,0.483433613762693,0.5245086245995793,0.11447510818605633,0.1463597280990787,0.0013704640084206334
0.62625,0.61875,0.685,0.5975,0.75,0.50125,0.9475,0.8375,0.85625,0.795,0.78875,0.77875,0.4926300048828125,0.4985565185546875,0.529339599609375,0.4844283992188448,0.524837545578964,0.11469843761729011,0.1462468424858622,0.0019185628395820252
0.62625,0.61875,0.685,0.5975,0.75,0.50125,0.9475,0.8375,0.85625,0.795,0.78875,0.77875,0.4922088623046875,0.498602294921875,0.528131103515625,0.4865543519333222,0.5235619742514137,0.11625890374540626,0.14624696152510397,0.001275243019648517
0.62625,0.61875,0.685,0.5975,0.75,0.50125,0.9475,0.8375,0.85625,0.795,0.78875,0.77875,0.4915679931640625,0.4981781005859375,0.5264434814453125,0.48911351754557736,0.5209787410224287,0.1155903340197146,0.14669838773965158,0.001822567920980879
0.6255,0.618,0.6845,0.59625,0.7495,0.50025,0.94675,0.83675,0.85675,0.79425,0.78925,0.77925,0.4913116455078125,0.4970123291015625,0.526123046875,0.4921058963692938,0.516758925414518,0.1155903340197146,0.14669838773965158,0.001822567920980879
0.62475,0.61725,0.684,0.595,0.7490000000000001,0.49924999999999997,0.946,0.836,0.85725,0.7935,0.78975,0.7797499999999999,0.491461181640625,0.4967437744140625,0.525714111328125,0.49451263520611644,0.5119213800614061,0.11470126648980641,0.14681115431362632,0.0011835723260772595
0.624,0.6164999999999999,0.6835,0.59375,0.7484999999999999,0.49825,0.94525,0.83525,0.85775,0.7927500000000001,0.79025,0.7802500000000001,0.4914154052734375,0.4965911865234375,0.524981689453125,0.4961572402285134,0.5060008025579549,0.11514367791174802,0.14635996757802394,0.0017307338102561277
0.6232500000000001,0.61575,0.6829999999999999,0.5925,0.748,0.49725,0.9445,0.8345,0.8582500000000001,0.792,0.7907500000000001,0.78075,0.4913299560546875,0.497052001953125,0.52464599609375,0.49599679087234644,0.49974328118070105,0.11514367791174802,0.14635996757802394,0.0017307338102561277
0.6225,0.615,0.6825,0.59125,0.7475,0.49625,0.94375,0.83375,0.85875,0.79125,0.79125,0.78125,0.4916717529296875,0.497747802734375,0.5259521484375,0.4951784996201469,0.4938868831938645,0.11537125202900675,0.1464726151127569,0.0016392673881267385
0.6225,0.615,0.6825,0.59125,0.7475,0.49625,0.94375,0.83375,0.85875,0.79125,0.79125,0.78125,0.491925048828125,0.49921875,0.52637939453125,0.49306056923545705,0.489017248145182,0.1155931628922309,0.14703680790127924,0.0018237026344551234
0.6225,0.615,0.6825,0.59125,0.7475,0.49625,0.94375,0.83375,0.85875,0.79125,0.79125,0.78125,0.4921142578125,0.49954833984375,0.52860107421875,0.49068592021967844,0.4852948252653471,0.1155931628922309,0.14703680790127924,0.0018237026344551234
0.6225,0.615,0.6825,0.59125,0.7475,0.49625,0.94375,0.83375,0.85875,0.79125,0.79125,0.78125,0.492510986328125,0.4998046875,0.531207275390625,0.48873646177188995,0.48284797396400936,0.11603557431417248,0.14647273415199866,0.002367832270106708
0.62225,0.61425,0.6825,0.589,0.74675,0.489,0.9440000000000001,0.83325,0.8582500000000001,0.79125,0.7915000000000001,0.782,0.4930450439453125,0.4991455078125,0.5339691162109375,0.48632170041706957,0.4885359003276281,0.11514650678426433,0.14613431399037105,0.0015498810822292936
0.622,0.6135,0.6825,0.58675,0.746,0.48174999999999996,0.9442499999999999,0.8327500000000001,0.85775,0.79125,0.79175,0.7827500000000001,0.4927734375,0.4986083984375,0.533050537109375,0.4838106695991171,0.4948977134350649,0.11514650678426433,0.14613431399037105,0.0015498810822292936
0.62175,0.61275,0.6825,0.5845,0.7452500000000001,0.47450000000000003,0.9445,0.8322499999999999,0.85725,0.79125,0.792,0.7835,0.4924224853515625,0.49801025390625,0.5317779541015625,0.482117930096101,0.5018451663411854,0.11581083182393108,0.14669850677889337,0.0013646972242224104
0.6214999999999999,0.612,0.6825,0.58225,0.7445,0.46725,0.94475,0.83175,0.85675,0.79125,0.7922499999999999,0.78425,0.4918914794921875,0.4973236083984375,0.52835693359375,0.4813638184232527,0.5063618130447001,0.11558891820620594,0.14681174950983525,0.0015477198328331142
0.62125,0.61125,0.6825,0.58,0.74375,0.46,0.945,0.83125,0.85625,0.79125,0.7925,0.785,0.4913238525390625,0.496502685546875,0.52479248046875,0.4815483350824659,0.50837545126005,0.11558891820620594,0.14681174950983525,0.0015477198328331142
0.621,0.608,0.682,0.5795,0.7432500000000001,0.45899999999999996,0.94575,0.8315,0.8554999999999999,0.79025,0.7915000000000001,0.78425,0.490802001953125,0.49583740234375,0.520855712890625,0.4838267146351125,0.5011070998925425,0.11692605765758933,0.14624755672131293,0.0020068138565927157
0.62075,0.60475,0.6815000000000001,0.579,0.74275,0.45799999999999996,0.9465,0.83175,0.8547499999999999,0.78925,0.7905,0.7835,0.4908843994140625,0.4952911376953125,0.5199981689453125,0.4877095866829042,0.4908303246025866,0.11692605765758933,0.14624755672131293,0.0020068138565927157
0.6204999999999999,0.6015,0.6809999999999999,0.5785,0.74225,0.457,0.9472499999999999,0.8320000000000001,0.8540000000000001,0.78825,0.7895,0.7827500000000001,0.4910125732421875,0.494683837890625,0.5195709228515625,0.49298034487105713,0.47752908085608026,0.11558750514719829,0.1462474376820711,0.001822948844064015
0.62025,0.5982500000000001,0.6805,0.578,0.74175,0.456,0.948,0.8322499999999999,0.8532500000000001,0.7872499999999999,0.7885,0.782,0.4913787841796875,0.4942718505859375,0.5220245361328125,0.49934215822944067,0.4643000388305028,0.11781654100100614,0.14647332934820761,0.0011870604767267893
0.62,0.595,0.68,0.5775,0.74125,0.455,0.94875,0.8325,0.8525,0.78625,0.7875,0.78125,0.4922088623046875,0.494403076171875,0.526055908203125,0.5066586444539876,0.4541917349128179,0.11625748793189764,0.14647332934820761,0.001732808747775466
0.62,0.595,0.68,0.5775,0.74125,0.455,0.94875,0.8325,0.8525,0.78625,0.7875,0.78125,0.492877197265625,0.4950042724609375,0.531024169921875,0.5130124350434266,0.4494263913433716,0.11736422439350598,0.14602202357336344,0.001457293181113438
0.62,0.595,0.68,0.5775,0.74125,0.455,0.94875,0.8325,0.8525,0.78625,0.7875,0.78125,0.4939239501953125,0.4959991455078125,0.535791015625,0.517208183160081,0.4516325689868792,0.11513801741221441,0.14636091989195824,0.0027350864290164425
0.6185,0.5925,0.6785,0.575,0.7397499999999999,0.4495,0.9477500000000001,0.8327500000000001,0.8525,0.78425,0.78675,0.7802500000000001,0.4949554443359375,0.4972076416015625,0.5399993896484375,0.517769755530245,0.4630806238742025,0.11335988235239806,0.14602202357336344,0.0017336436713308054
0.617,0.59,0.677,0.5725,0.7382500000000001,0.444,0.94675,0.833,0.8525,0.7822499999999999,0.7859999999999999,0.77925,0.495263671875,0.4968658447265625,0.5456878662109375,0.5237625355702021,0.49643802534707143,0.11335988235239806,0.14602202357336344,0.0017336436713308054
0.6154999999999999,0.5875,0.6755,0.57,0.73675,0.4385,0.94575,0.83325,0.8525,0.7802500000000001,0.78525,0.77825,0.49522705078125,0.4968902587890625,0.5503021240234375,0.535242680780463,0.5416606498827296,0.11669565466781427,0.1462482723572253,0.0024601353420289746
0.614,0.585,0.674,0.5675,0.7352500000000001,0.433,0.94475,0.8334999999999999,0.8525,0.77825,0.7845,0.77725,0.495037841796875,0.496783447265625,0.5560089111328125,0.5475250722696647,0.5871399949943141,0.11580941601042244,0.14624803427874172,0.0013680098740556923
0.6135,0.58825,0.6735,0.5660000000000001,0.736,0.43674999999999997,0.94375,0.83325,0.8525,0.7775,0.7835,0.7747499999999999,0.490447998046875,0.4961212158203125,0.5626800537109375,0.558419577681242,0.6238507869069053,0.11603274544165619,0.1461346711080964,0.0012759041686251423
0.6145,0.594,0.6745,0.5670000000000001,0.7382500000000001,0.446,0.94375,0.8327500000000001,0.8525,0.77875,0.78325,0.77325,0.4860687255859375,0.492254638671875,0.5674102783203125,0.5711432037706422,0.645607706403335,0.11603274544165619,0.1461346711080964,0.0012759041686251423
0.6154999999999999,0.59975,0.6755,0.568,0.7404999999999999,0.45525,0.94375,0.8322499999999999,0.8525,0.78,0.7829999999999999,0.7717499999999999,0.4593292236328125,0.4937774658203125,0.5588134765625,0.5933894933516767,0.6191496237323875,0.11447510818605633,0.1463602056565075,0.0016448500403210228
0.61875,0.6082500000000001,0.6779999999999999,0.57475,0.74375,0.4755,0.945,0.83375,0.85275,0.7835,0.7845,0.7759999999999999,0.44544677734375,0.4934478759765625,0.5438201904296875,0.5637705586653774,0.5828479784810516,0.11648647510816401,0.14658573880445697,0.0011866933635439451
0.622,0.61675,0.6805,0.5815,0.747,0.49575,0.94625,0.83525,0.853,0.787,0.7859999999999999,0.7802500000000001,0.4371490478515625,0.4957122802734375,0.529339599609375,0.5353870842223207,0.5655515471211022,0.11648647510816401,0.14658573880445697,0.0011866933635439451
0.62425,0.6195,0.682,0.58725,0.748,0.5067499999999999,0.9475,0.8372499999999999,0.8532500000000001,0.78925,0.7877500000000001,0.7859999999999999,0.435302734375,0.498382568359375,0.51519775390625,0.5091696740799427,0.558844767245445,0.11648647510816401,0.14658573880445697,0.0011866933635439451
0.6265,0.62225,0.6835,0.593,0.7490000000000001,0.5177499999999999,0.94875,0.8392499999999999,0.8534999999999999,0.7915000000000001,0.7895,0.79175,0.43458251953125,0.5041046142578125,0.503863525390625,0.483080624225528,0.5652226261417176,0.11447369237254768,0.1470370459797628,0.0017348813836447529
0.62875,0.625,0.685,0.59875,0.75,0.52875,0.95,0.84125,0.85375,0.79375,0.79125,0.7975,0.458685302734375,0.505902099609375,0.5029510498046875,0.4406979524909942,0.603281190036264,0.1155931628922309,0.1469241589660846,0.0015495082149213255
0.62925,0.626,0.68525,0.6,0.75075,0.53225,0.95,0.8422499999999999,0.8534999999999999,0.79475,0.7907500000000001,0.7975,0.471160888671875,0.5081878662109375,0.5084716796875,0.44421981405204064,0.6434496643697072,0.11626031955891492,0.1464726151127569,0.0016407571311210683
0.62975,0.627,0.6855,0.60125,0.7515000000000001,0.5357500000000001,0.95,0.84325,0.8532500000000001,0.7957500000000001,0.79025,0.7975,0.479473876953125,0.5074951171875,0.5125,0.44599277823314026,0.6652707627553845,0.11580941601042244,0.1465855007259734,0.002005400643462516
0.63025,0.628,0.6857500000000001,0.6025,0.75225,0.53925,0.95,0.84425,0.853,0.79675,0.78975,0.7975,0.4882965087890625,0.5067413330078125,0.5157958984375,0.4473967090958134,0.6845246734499659,0.11759462738328103,0.14681115431362632,0.0020068138565927157
0.63075,0.629,0.6859999999999999,0.60375,0.753,0.54275,0.95,0.8452500000000001,0.85275,0.7977500000000001,0.78925,0.7975,0.497515869140625,0.506243896484375,0.518505859375,0.4486722806743105,0.7013878903437201,0.11625607211838895,0.14635984713832048,0.0016425921216227785
0.63125,0.63,0.68625,0.605,0.75375,0.54625,0.95,0.84625,0.8525,0.79875,0.78875,0.7975,0.5072418212890625,0.5065338134765625,0.520916748046875,0.44955475112944127,0.7155475389989383,0.11447793705857263,0.1455701212018487,0.0014587086958936855
0.63125,0.63,0.68625,0.605,0.75375,0.54625,0.95,0.84625,0.8525,0.79875,0.78875,0.7975,0.5202239990234375,0.5087799072265625,0.5229827880859375,0.44955475112944127,0.7261452107427069,0.11447793705857263,0.1455701212018487,0.0014587086958936855
0.63125,0.63,0.68625,0.605,0.75375,0.54625,0.95,0.84625,0.8525,0.79875,0.78875,0.7975,0.534173583984375,0.51224365234375,0.5236724853515625,0.4506056932077898,0.7323786648169144,0.11470126648980641,0.14613431399037105,0.0016420075025102882
0.632,0.63025,0.68675,0.60575,0.75375,0.5475,0.95,0.84625,0.853,0.79925,0.7885,0.79675,0.546270751953125,0.51680908203125,0.5246124267578125,0.4558924966828849,0.7303971166735553,0.11647940154962276,0.14726269816695406,0.0014585314688398954
0.63275,0.6305,0.6872499999999999,0.6065,0.75375,0.54875,0.95,0.84625,0.8534999999999999,0.79975,0.78825,0.7959999999999999,0.5541839599609375,0.518658447265625,0.525994873046875,0.47366225284049684,0.7021420015146747,0.11603699012768114,0.1462474376820711,0.000909383660668586
0.6335000000000001,0.63075,0.6877500000000001,0.6072500000000001,0.75375,0.55,0.95,0.84625,0.8540000000000001,0.80025,0.7879999999999999,0.79525,0.5571868896484375,0.5167816162109375,0.5251251220703125,0.4878138777229835,0.6518812698052228,0.11469702180378145,0.14579565575025982,0.0018208681524195562
0.63425,0.631,0.68825,0.608,0.75375,0.55125,0.95,0.84625,0.8545,0.8007500000000001,0.7877500000000001,0.7945,0.5496002197265625,0.51116943359375,0.5223297119140625,0.48743682213750616,0.591311673988558,0.1153670045884808,0.14624731864282933,0.0019144077858307463
0.635,0.63125,0.68875,0.60875,0.75375,0.5525,0.95,0.84625,0.855,0.80125,0.7875,0.79375,0.535888671875,0.4996673583984375,0.52510986328125,0.4846530282170997,0.5339350187535549,0.11581649232346469,0.14624719960358756,0.0010919298277191044
0.635,0.63125,0.68875,0.60875,0.75375,0.5525,0.95,0.84625,0.855,0.80125,0.7875,0.79375,0.527166748046875,0.4955841064453125,0.515509033203125,0.46409947813908137,0.4589089443780651,0.11447510818605633,0.14647297223048225,0.0015495139690464496
0.63425,0.63,0.6890000000000001,0.6072500000000001,0.754,0.55225,0.94975,0.84725,0.8547499999999999,0.8015000000000001,0.78825,0.7955,0.5208648681640625,0.4939605712890625,0.5053131103515625,0.4314801433030653,0.4081989556758905,0.11447510818605633,0.14647297223048225,0.0015495139690464496
0.6335000000000001,0.62875,0.6892499999999999,0.60575,0.75425,0.552,0.9495,0.8482500000000001,0.8545,0.80175,0.789,0.7972499999999999,0.5101593017578125,0.496185302734375,0.5171051025390625,0.44802246299016635,0.3683353350187857,0.11469985067629777,0.14557035928033224,0.0010944927150488683
0.63275,0.6275,0.6895,0.60425,0.7545000000000001,0.55175,0.9492499999999999,0.84925,0.85425,0.802,0.78975,0.799,0.49539794921875,0.4972991943359375,0.53814697265625,0.47690333103961274,0.3280946617875651,0.11603699012768114,0.14602178549487987,0.001825974938466178
0.632,0.62625,0.68975,0.60275,0.7547499999999999,0.5515,0.9490000000000001,0.8502500000000001,0.8540000000000001,0.8022499999999999,0.7905,0.8007500000000001,0.4886138916015625,0.5048980712890625,0.548095703125,0.5077978363006219,0.2721780952921659,0.11603699012768114,0.14602178549487987,0.001825974938466178
0.63125,0.625,0.69,0.60125,0.755,0.55125,0.94875,0.85125,0.85375,0.8025,0.79125,0.8025,0.4846588134765625,0.50584716796875,0.5698272705078125,0.5536702795242113,0.23994383730489088,0.11647940154962276,0.14590901752044347,0.0006375541865603177
0.63125,0.625,0.69,0.60125,0.755,0.55125,0.94875,0.85125,0.85375,0.8025,0.79125,0.8025,0.4787750244140625,0.5061004638671875,0.58604736328125,0.5946089080570303,0.2128359324327569,0.1155931628922309,0.14647285319124045,0.0011827293467467485
0.63125,0.625,0.69,0.60125,0.755,0.55125,0.94875,0.85125,0.85375,0.8025,0.79125,0.8025,0.480279541015625,0.507928466796875,0.5826263427734375,0.5840914579799835,0.20133172042134329,0.1155931628922309,0.14647285319124045,0.0011827293467467485
0.63125,0.625,0.69,0.60125,0.755,0.55125,0.94875,0.85125,0.85375,0.8025,0.79125,0.8025,0.4920074462890625,0.5123260498046875,0.566571044921875,0.5705495394463864,0.20353789605727657,0.15246753542379168,0.14026745095433035,0.029109154030221893
0.6305,0.62275,0.68975,0.597,0.75375,0.53275,0.9505,0.85375,0.855,0.8045,0.79325,0.8045,0.4996612548828125,0.515045166015625,0.556671142578125,0.5560770158515661,0.21905333795771392,0.15246753542379168,0.14026745095433035,0.029109154030221893
0.62975,0.6204999999999999,0.6895,0.59275,0.7525,0.51425,0.9522499999999999,0.85625,0.85625,0.8065000000000001,0.79525,0.8065000000000001,0.49903564453125,0.514617919921875,0.5477386474609375,0.5369915767802025,0.2359566681942969,0.18172752518079413,0.15696697602290724,0.06049352193257148
0.629,0.6182500000000001,0.6892499999999999,0.5885,0.75125,0.49575,0.9540000000000001,0.85875,0.8575,0.8085,0.7972499999999999,0.8085,0.4993011474609375,0.513433837890625,0.5538604736328125,0.5207460894434394,0.24766144491228065,0.18658414288209235,0.1731037395747865,0.07675363227925634
0.62825,0.616,0.6890000000000001,0.5842499999999999,0.75,0.47725,0.95575,0.86125,0.85875,0.8105,0.79925,0.8105,0.499005126953125,0.509588623046875,0.5639495849609375,0.5111191340255699,0.2646048864841182,0.18658414288209235,0.1731037395747865,0.07675363227925634
0.6275,0.61375,0.68875,0.58,0.74875,0.45875,0.9575,0.86375,0.86,0.8125,0.80125,0.8125,0.5005096435546875,0.5053375244140625,0.5747467041015625,0.5067950263737927,0.29667067084060106,0.18658414288209235,0.1731037395747865,0.07675363227925634
0.6275,0.61375,0.68875,0.58,0.74875,0.45875,0.9575,0.86375,0.86,0.8125,0.80125,0.8125,0.5026275634765625,0.5021697998046875,0.5793182373046875,0.5033132772772614,0.3427276317271909,0.22638984159426725,0.20143816433691394,0.16694297237061018
0.6275,0.61375,0.68875,0.58,0.74875,0.45875,0.9575,0.86375,0.86,0.8125,0.80125,0.8125,0.5027008056640625,0.501397705078125,0.57965087890625,0.5017408744463185,0.39333332945202293,0.22638984159426725,0.20143816433691394,0.16694297237061018
0.6275,0.61375,0.68875,0.58,0.74875,0.45875,0.9575,0.86375,0.86,0.8125,0.80125,0.8125,0.5025665283203125,0.5028594970703125,0.570245361328125,0.5010509426037684,0.4487765706478659,0.2720926294390422,0.19174198815171054,0.2249750165237615
0.6245,0.60875,0.6857500000000001,0.57575,0.7425,0.44925,0.95525,0.861,0.8590000000000001,0.813,0.7995,0.8127500000000001,0.5022735595703125,0.5027862548828125,0.554486083984375,0.49953469706159975,0.49647011567000904,0.31238317541540445,0.2586616751075782,0.28103827295619516
0.6214999999999999,0.60375,0.6827500000000001,0.5715,0.73625,0.43975000000000003,0.953,0.8582500000000001,0.858,0.8134999999999999,0.7977500000000001,0.813,0.4995880126953125,0.5030364990234375,0.5428558349609375,0.49720818271465045,0.5251584442912978,0.33342954897106664,0.28484387738052275,0.3031308853641299
0.6185,0.59875,0.67975,0.56725,0.73,0.43024999999999997,0.95075,0.8554999999999999,0.857,0.8140000000000001,0.7959999999999999,0.81325,0.4962493896484375,0.5024658203125,0.5359832763671875,0.4955074205838474,0.538219013752607,0.3723025516121593,0.2849618872829827,0.3236956083806427
0.6154999999999999,0.59375,0.67675,0.563,0.72375,0.42075,0.9484999999999999,0.85275,0.856,0.8145,0.79425,0.8134999999999999,0.4939727783203125,0.5002044677734375,0.5317169189453125,0.49647813864284784,0.5416766951696718,0.4303152704874247,0.28293922710455977,0.3450835723522585
0.6125,0.58875,0.67375,0.55875,0.7175,0.41125,0.94625,0.85,0.855,0.815,0.7925,0.81375,0.4929412841796875,0.497161865234375,0.5276458740234375,0.49866024866962566,0.5403690335191839,0.5721783930309539,0.33298128387875203,0.5449534134665649
0.6125,0.58875,0.67375,0.55875,0.7175,0.41125,0.94625,0.85,0.855,0.815,0.7925,0.81375,0.4922149658203125,0.49632568359375,0.525830078125,0.5024628961020706,0.5321219414805732,0.5721783930309539,0.33298128387875203,0.5449534134665649
0.6125,0.58875,0.67375,0.55875,0.7175,0.41125,0.94625,0.85,0.855,0.815,0.7925,0.81375,0.4919342041015625,0.4964813232421875,0.5244354248046875,0.5064500601937287,0.5235459284625779,0.593537476820461,0.313234666523405,0.5026637234815354
0.6125,0.58875,0.67375,0.55875,0.7175,0.41125,0.94625,0.85,0.855,0.815,0.7925,0.81375,0.4918060302734375,0.496624755859375,0.5246063232421875,0.5093461693504188,0.5150982750424421,0.5614039337866,0.2631236874286803,0.46136464986777265
0.61425,0.59225,0.6757500000000001,0.5615,0.72125,0.41825,0.94575,0.84925,0.8547499999999999,0.8127500000000001,0.7915000000000001,0.812,0.492303466796875,0.497625732421875,0.525537109375,0.5103890894754,0.5072843962152928,0.4853230821971411,0.19393448231662047,0.383469936023997
0.616,0.59575,0.6777500000000001,0.5642499999999999,0.725,0.42524999999999996,0.94525,0.8484999999999999,0.8545,0.8105,0.7905,0.81025,0.4928802490234375,0.49869384765625,0.52666015625,0.5109346169977785,0.4990533492126775,0.4458140515050478,0.17079365424545534,0.3487899205772782
0.61775,0.59925,0.67975,0.5670000000000001,0.72875,0.43225,0.94475,0.84775,0.85425,0.80825,0.7895,0.8085,0.49345703125,0.4994659423828125,0.527703857421875,0.5089370237870557,0.4952346567442372,0.4229810535175193,0.15002498416613527,0.32050067758995066
0.6195,0.60275,0.68175,0.56975,0.7325,0.43925,0.9442499999999999,0.847,0.8540000000000001,0.8059999999999999,0.7885,0.80675,0.4940338134765625,0.500238037109375,0.52874755859375,0.5069394305763328,0.49141596427579687,0.39367861414576627,0.136027578462556,0.29421083484440735
0.62125,0.60625,0.68375,0.5725,0.73625,0.44625,0.94375,0.84625,0.85375,0.80375,0.7875,0.805,0.49437255859375,0.5003631591796875,0.529608154296875,0.5043963097961788,0.48920176455344844,0.36263058414338895,0.12010884298454699,0.2518480369734532
0.62125,0.60625,0.68375,0.5725,0.73625,0.44625,0.94375,0.84625,0.85375,0.80375,0.7875,0.805,0.494384765625,0.5000244140625,0.5298583984375,0.5029281991032075,0.4886642596118042,0.36263058414338895,0.12010884298454699,0.2518480369734532
0.62125,0.60625,0.68375,0.5725,0.73625,0.44625,0.94375,0.84625,0.85375,0.80375,0.7875,0.805,0.4943450927734375,0.4997222900390625,0.5297515869140625,0.5020296831729245,0.4880866423311182,0.3497666981733836,0.11683323876785942,0.23513563282807906
0.62175,0.60675,0.684,0.574,0.737,0.45,0.94375,0.847,0.8534999999999999,0.804,0.7879999999999999,0.80525,0.494183349609375,0.4995330810546875,0.5292144775390625,0.5020858403911198,0.4871079019109618,0.309594761009633,0.12179022185815447,0.18817418649351417
0.62225,0.6072500000000001,0.68425,0.5755,0.73775,0.45375,0.94375,0.84775,0.8532500000000001,0.80425,0.7885,0.8055,0.4940338134765625,0.4994049072265625,0.5286865234375,0.5020858403911198,0.48531889269386685,0.2964990672543479,0.12697786098518077,0.17555819868735692
0.62275,0.60775,0.6845,0.5770000000000001,0.7384999999999999,0.4575,0.94375,0.8484999999999999,0.853,0.8045,0.789,0.8057500000000001,0.494091796875,0.4997100830078125,0.52852783203125,0.5017890092563054,0.48251103071757373,0.2964990672543479,0.12697786098518077,0.17555819868735692
0.6232500000000001,0.6082500000000001,0.68475,0.5785,0.73925,0.46125,0.94375,0.84925,0.85275,0.80475,0.7895,0.8059999999999999,0.49420166015625,0.4999847412109375,0.5285186767578125,0.5012835940808106,0.47995988756057956,0.2725168831904605,0.13679073484026116,0.15088208134393208
0.62375,0.60875,0.685,0.58,0.74,0.465,0.94375,0.85,0.8525,0.805,0.79,0.80625,0.49432373046875,0.5001220703125,0.5286468505859375,0.5005375050200651,0.47689530651404066,0.2027710671094391,0.17323259045101902,0.10286158310177558
0.62375,0.60875,0.685,0.58,0.74,0.465,0.94375,0.85,0.8525,0.805,0.79,0.80625,0.4945220947265625,0.500140380859375,0.5291107177734375,0.49966305654967014,0.47275571533326655,0.20565735444437244,0.17300705730306956,0.1050512636301882
0.62375,0.60875,0.685,0.58,0.74,0.465,0.94375,0.85,0.8525,0.805,0.79,0.80625,0.4946685791015625,0.5003326416015625,0.53057861328125,0.4982430805568965,0.4689771354548148,0.20854647065182216,0.17233152641147392,0.10860414991359131
0.62375,0.60875,0.685,0.58,0.74,0.465,0.94375,0.85,0.8525,0.805,0.79,0.80625,0.4954010009765625,0.5006561279296875,0.5311767578125,0.49598876842492756,0.4674047324670302,0.23628419645493295,0.1803529969229182,0.13859381973415247
0.62225,0.608,0.68425,0.5792499999999999,0.7390000000000001,0.4715,0.94,0.8420000000000001,0.8502500000000001,0.7977500000000001,0.78625,0.79325,0.495770263671875,0.500408935546875,0.5315643310546875,0.495587645277615,0.47269955789549273,0.25027745813018015,0.18317800960021233,0.15025621781338408
0.62075,0.6072500000000001,0.6835,0.5785,0.738,0.478,0.93625,0.8340000000000001,0.848,0.7905,0.7825,0.7802500000000001,0.496099853515625,0.5002471923828125,0.5319549560546875,0.49565984743770075,0.47895707927274656,0.2613773616664537,0.1871312874148477,0.16300641368308402
0.61925,0.6065,0.6827500000000001,0.57775,0.737,0.48450000000000004,0.9325,0.826,0.84575,0.78325,0.77875,0.76725,0.4963623046875,0.5001495361328125,0.5321502685546875,0.4961010829162129,0.48661050927699095,0.26156107035545323,0.19424502208736016,0.17957343755557675
0.61775,0.60575,0.682,0.5770000000000001,0.736,0.491,0.92875,0.818,0.8434999999999999,0.7759999999999999,0.775,0.75425,0.4966766357421875,0.49979248046875,0.5312530517578125,0.4973365422497733,0.4944725228827589,0.263309489858594,0.2038420133758458,0.19695786194617268
0.61625,0.605,0.68125,0.57625,0.735,0.4975,0.925,0.81,0.84125,0.76875,0.77125,0.74125,0.4962738037109375,0.499285888671875,0.530950927734375,0.49987966304561154,0.5008824709178139,0.27105805539435907,0.2128743357188419,0.21562737696615256
0.61625,0.605,0.68125,0.57625,0.735,0.4975,0.925,0.81,0.84125,0.76875,0.77125,0.74125,0.4962158203125,0.499365234375,0.5309051513671875,0.5005535499462713,0.5003048535900754,0.2801508339400489,0.2193113491073409,0.23074060386395662
0.61625,0.605,0.68125,0.57625,0.735,0.4975,0.925,0.81,0.84125,0.76875,0.77125,0.74125,0.4961761474609375,0.4993743896484375,0.5308258056640625,0.500874448470395,0.49965503408656703,0.2887997769867855,0.21965524927547567,0.2505081532629985
0.61675,0.60525,0.6815000000000001,0.5765,0.7354999999999999,0.4985,0.924,0.80975,0.84075,0.77125,0.7709999999999999,0.74175,0.496160888671875,0.4994171142578125,0.5307830810546875,0.5009225832490135,0.4989009225705605,0.2850682985682071,0.18117310447481713,0.23851329967195073
0.61725,0.6054999999999999,0.68175,0.57675,0.736,0.49950000000000006,0.9229999999999999,0.8095,0.84025,0.77375,0.77075,0.74225,0.4962005615234375,0.499481201171875,0.5307952880859375,0.5007781789131579,0.4984115523134298,0.2850682985682071,0.18117310447481713,0.23851329967195073
0.61775,0.60575,0.682,0.5770000000000001,0.7365,0.5005,0.922,0.80925,0.83975,0.77625,0.7705,0.74275,0.49622802734375,0.4994598388671875,0.5308135986328125,0.5006016847327319,0.498090653781464,0.2819756633006407,0.17395005816726505,0.23241716316159267
0.6182500000000001,0.606,0.6822499999999999,0.57725,0.737,0.5015,0.9209999999999999,0.809,0.8392499999999999,0.77875,0.7702500000000001,0.7432500000000001,0.4962738037109375,0.4994232177734375,0.5307861328125,0.500441235462828,0.49789009219604463,0.26646013767150195,0.15340287250121207,0.20099054041681522
0.61875,0.60625,0.6825,0.5775,0.7375,0.5025,0.92,0.80875,0.83875,0.78125,0.77,0.74375,0.49639892578125,0.4994140625,0.5308258056640625,0.5003128760610206,0.49786602479889325,0.2624642877569449,0.15238570458753722,0.1946110667575155
0.61875,0.60625,0.6825,0.5775,0.7375,0.5025,0.92,0.80875,0.83875,0.78125,0.77,0.74375,0.496502685546875,0.49935302734375,0.5308258056640625,0.5002727637455051,0.49798636172191335,0.2595794162355203,0.15272341051371413,0.19086967648590952
0.61875,0.60625,0.6825,0.5775,0.7375,0.5025,0.92,0.80875,0.83875,0.78125,0.77,0.74375,0.496514892578125,0.4993072509765625,0.5308807373046875,0.5002807862086083,0.49812274358682385,0.25225062287806327,0.15339727205500145,0.18274902297760548
0.619,0.60675,0.6827500000000001,0.57775,0.73775,0.506,0.9215000000000001,0.8095,0.8375,0.77925,0.76925,0.743,0.4967498779296875,0.499371337890625,0.530859375,0.5002326514299896,0.4984115522585352,0.24847668382673038,0.15418628375602256,0.17846294664644857
0.61925,0.6072500000000001,0.6829999999999999,0.578,0.738,0.5095000000000001,0.9229999999999999,0.81025,0.83625,0.77725,0.7685,0.74225,0.4969024658203125,0.4994140625,0.531005859375,0.500080224631031,0.49914159640875866,0.24425184673590697,0.155539488245566,0.17526768556897443
0.6195,0.60775,0.68325,0.57825,0.7382500000000001,0.513,0.9245,0.8109999999999999,0.835,0.7752500000000001,0.76775,0.7415,0.4968475341796875,0.49947509765625,0.5310943603515625,0.4997753710409555,0.4999358202638069,0.24425184673590697,0.155539488245566,0.17526768556897443
0.61975,0.6082500000000001,0.6835,0.5785,0.7384999999999999,0.5165,0.9259999999999999,0.81175,0.83375,0.77325,0.767,0.74075,0.496795654296875,0.499468994140625,0.531146240234375,0.49944645005372873,0.5007541115160065,0.2364806419565084,0.16208235833016943,0.16749751927438433
0.62,0.60875,0.68375,0.57875,0.73875,0.52,0.9275,0.8125,0.8325,0.77125,0.76625,0.74,0.49677734375,0.499505615234375,0.5311737060546875,0.4991255515374471,0.5016606498388139,0.23515340769068355,0.16535462664716366,0.16566462212339525
0.62,0.60875,0.68375,0.57875,0.73875,0.52,0.9275,0.8125,0.8325,0.77125,0.76625,0.74,0.49661865234375,0.4994537353515625,0.5312835693359375,0.4988367428578937,0.5024709186043841,0.23515340769068355,0.16535462664716366,0.16566462212339525
0.62,0.60875,0.68375,0.57875,0.73875,0.52,0.9275,0.8125,0.8325,0.77125,0.76625,0.74,0.4965118408203125,0.4993988037109375,0.5311279296875,0.49866827114057083,0.5027998396151372,0.22782036964720162,0.17043188278597426,0.16291430912847849
0.62,0.60875,0.68375,0.57875,0.73875,0.52,0.9275,0.8125,0.8325,0.77125,0.76625,0.74,0.49644775390625,0.4993133544921875,0.5309967041015625,0.49869233852203804,0.5029121541142646,0.22361250854597706,0.1892756491126877,0.15731759097532916
0.61975,0.6082500000000001,0.68375,0.5785,0.73875,0.51575,0.9272499999999999,0.8122499999999999,0.8340000000000001,0.77275,0.76775,0.7447499999999999,0.49638671875,0.4993194580078125,0.530938720703125,0.49884476532883887,0.502976333787721,0.2227078753309767,0.17460366483144704,0.16224790375855166
0.6195,0.60775,0.68375,0.57825,0.73875,0.5115,0.927,0.812,0.8355,0.77425,0.76925,0.7495,0.4963165283203125,0.4992706298828125,0.5308746337890625,0.498941034886076,0.5029121540828962,0.2227078753309767,0.17460366483144704,0.16224790375855166
0.61925,0.6072500000000001,0.68375,0.578,0.73875,0.50725,0.92675,0.81175,0.8370000000000001,0.77575,0.77075,0.75425,0.4962493896484375,0.4992462158203125,0.5308563232421875,0.49918973125011395,0.5027356599103124,0.22204638191832723,0.1716694595583551,0.16088903546307878
0.619,0.60675,0.68375,0.57775,0.73875,0.503,0.9265000000000001,0.8115000000000001,0.8384999999999999,0.77725,0.77225,0.759,0.496173095703125,0.499273681640625,0.530865478515625,0.49947051745088006,0.5024468512072328,0.22204638191832723,0.1716694595583551,0.16088903546307878
0.61875,0.60575,0.68325,0.578,0.73875,0.49524999999999997,0.9265000000000001,0.8115000000000001,0.84075,0.7802500000000001,0.7745000000000001,0.7665000000000001,0.496307373046875,0.49932861328125,0.5312164306640625,0.4997753710487976,0.5034897713322138,0.22471500032156044,0.1672682090676456,0.16109149262929226
0.61875,0.60525,0.6827500000000001,0.5785,0.73875,0.49174999999999996,0.92675,0.81175,0.8415,0.78175,0.7752500000000001,0.76925,0.4963470458984375,0.499432373046875,0.531396484375,0.49971921379923384,0.5049979943642269,0.22359694286088488,0.1662525914650373,0.16100060679838785
0.61875,0.60475,0.6822499999999999,0.579,0.73875,0.48825,0.927,0.812,0.8422499999999999,0.78325,0.7759999999999999,0.772,0.496295166015625,0.499505615234375,0.5315277099609375,0.49950260728760826,0.5066666667524068,0.2295900125804671,0.16534950235792018,0.16440185347160077
0.61875,0.60425,0.68175,0.5795,0.73875,0.48475,0.9272499999999999,0.8122499999999999,0.843,0.78475,0.7767499999999999,0.7747499999999999,0.4962493896484375,0.4995574951171875,0.531683349609375,0.4989971921356397,0.5086803049991251,0.23047766705136763,0.16455977642144837,0.1644038277119305
0.61875,0.60375,0.68125,0.58,0.73875,0.48125,0.9275,0.8125,0.84375,0.78625,0.7775,0.7775,0.4961578369140625,0.49954833984375,0.5318084716796875,0.4980746088866262,0.5111833135500267,0.23047766705136763,0.16455977642144837,0.1644038277119305
0.61875,0.60375,0.68125,0.58,0.73875,0.48125,0.9275,0.8125,0.84375,0.78625,0.7775,0.7775,0.4959228515625,0.4995147705078125,0.5316162109375,0.4971038908589941,0.5124107505224311,0.2291419434134929,0.16783156858147544,0.16440969461790586
0.619,0.6032500000000001,0.68175,0.5802499999999999,0.73875,0.47700000000000004,0.9285,0.815,0.845,0.78825,0.7795000000000001,0.7802500000000001,0.495758056640625,0.499334716796875,0.531512451171875,0.4961813076256647,0.51346169335362,0.22625141139253452,0.17020134298756148,0.16440883782867505
0.61925,0.60275,0.6822499999999999,0.5805,0.73875,0.47275,0.9295,0.8175,0.84625,0.79025,0.7815000000000001,0.7829999999999999,0.4956695556640625,0.49921875,0.53143310546875,0.4954111511363995,0.5145046134158644,0.22448035264576047,0.17200609273089432,0.1626773220328147
0.6195,0.6022500000000001,0.6827500000000001,0.58075,0.73875,0.4685,0.9305,0.82,0.8475,0.7922499999999999,0.7835,0.7857500000000001,0.4954833984375,0.4990814208984375,0.5312774658203125,0.4949859605684093,0.5152266350167218,0.21803213469166075,0.1733583435060418,0.15976549765064688
0.61975,0.60175,0.68325,0.581,0.73875,0.46425,0.9315000000000001,0.8225,0.84875,0.79425,0.7855,0.7885,0.49542236328125,0.4989776611328125,0.5312713623046875,0.4951784996828836,0.5156758930132318,0.21803213469166075,0.1733583435060418,0.15976549765064688
0.62,0.60125,0.68375,0.58125,0.73875,0.46,0.9325,0.825,0.85,0.79625,0.7875,0.79125,0.49527587890625,0.4988677978515625,0.5313507080078125,0.495571600367093,0.5163818698290406,0.21781446851446157,0.17347111008001653,0.15839905462486212
0.62,0.60125,0.68375,0.58125,0.73875,0.46,0.9325,0.825,0.85,0.79625,0.7875,0.79125,0.4952911376953125,0.498876953125,0.531414794921875,0.49617328507629865,0.5168231053075527,0.2147034386892868,0.17301908866925997,0.1587751764659988
0.62,0.60125,0.68375,0.58125,0.73875,0.46,0.9325,0.825,0.85,0.79625,0.7875,0.79125,0.4952484130859375,0.49898681640625,0.5314300537109375,0.49667870025963556,0.5173846778031901,0.22583729971376,0.17098773442480159,0.16165561669892112
0.62,0.60125,0.68375,0.58125,0.73875,0.46,0.9325,0.825,0.85,0.79625,0.7875,0.79125,0.4951141357421875,0.49910888671875,0.5314971923828125,0.49694344153419556,0.5180585647979549,0.22583729971376,0.17098773442480159,0.16165561669892112
0.62025,0.601,0.68375,0.58075,0.73875,0.45675,0.934,0.8240000000000001,0.852,0.7972499999999999,0.78825,0.7925,0.4949798583984375,0.499261474609375,0.531549072265625,0.4968872842846318,0.5188848783799421,0.22540337766386828,0.1700853595531352,0.16193613029866494
0.6204999999999999,0.60075,0.68375,0.5802499999999999,0.73875,0.4535,0.9355,0.823,0.8540000000000001,0.79825,0.789,0.79375,0.4950439453125,0.4994140625,0.531463623046875,0.4966546328311159,0.5196951471768807,0.22540337766386828,0.17132686882187995,0.16596064769364552
0.62075,0.6004999999999999,0.68375,0.57975,0.73875,0.45025,0.937,0.8220000000000001,0.856,0.79925,0.78975,0.795,0.4947479248046875,0.4993499755859375,0.531317138671875,0.49653429587672737,0.5207380672391252,0.22540337766386828,0.17132686882187995,0.16596064769364552
0.621,0.60025,0.68375,0.5792499999999999,0.73875,0.447,0.9384999999999999,0.821,0.858,0.80025,0.7905,0.79625,0.49442138671875,0.49903564453125,0.5312164306640625,0.4967589248749823,0.5214199767518877,0.22651152993898527,0.169522001439767,0.16834258907855373
0.62125,0.6,0.68375,0.57875,0.73875,0.44375,0.94,0.82,0.86,0.80125,0.79125,0.7975,0.4943450927734375,0.4987579345703125,0.53121337890625,0.4975130364145151,0.5221259535676965,0.22895115841145108,0.1701997940769566,0.17483278476429423
0.62125,0.6,0.68375,0.57875,0.73875,0.44375,0.94,0.82,0.86,0.80125,0.79125,0.7975,0.494207763671875,0.4987091064453125,0.5312835693359375,0.49832330518792745,0.5229281998466374,0.23094837821647624,0.17099035468858256,0.17848618237910754
0.62125,0.6,0.68375,0.57875,0.73875,0.44375,0.94,0.82,0.86,0.80125,0.79125,0.7975,0.4939666748046875,0.498760986328125,0.5314117431640625,0.4989410348703918,0.5238106708036617,0.23871816718236621,0.17561821108087927,0.18708294543457227
0.62125,0.6,0.68375,0.57775,0.7382500000000001,0.441,0.9405,0.821,0.8597499999999999,0.80125,0.79175,0.7979999999999999,0.4938873291015625,0.4991668701171875,0.5314208984375,0.49910148413245364,0.5247894114747649,0.24116345615436557,0.1766343048404547,0.19019014135327722
0.62125,0.6,0.68375,0.57675,0.73775,0.43825000000000003,0.941,0.8220000000000001,0.8595,0.80125,0.7922499999999999,0.7985,0.4939117431640625,0.499688720703125,0.53145751953125,0.49902125948573856,0.5258563990910025,0.2433825868226149,0.17584517410019185,0.1934847111500108
0.62125,0.6,0.68375,0.57575,0.73725,0.4355,0.9415,0.823,0.85925,0.80125,0.7927500000000001,0.799,0.4935943603515625,0.5000579833984375,0.5313812255859375,0.4982671479462058,0.5269394317432354,0.25737019075282946,0.17483098636894664,0.20656141794486235
0.62125,0.6,0.68375,0.57475,0.73675,0.43274999999999997,0.9420000000000001,0.8240000000000001,0.8590000000000001,0.80125,0.79325,0.7995,0.4932769775390625,0.4999725341796875,0.53140869140625,0.4974007219232297,0.5278219027002597,0.25737019075282946,0.17483098636894664,0.20656141794486235
0.62125,0.6,0.68375,0.57375,0.73625,0.43,0.9425,0.825,0.85875,0.80125,0.79375,0.8,0.4930206298828125,0.4995941162109375,0.532171630859375,0.4968551944635878,0.5293461705800581,0.2589179228228708,0.17629874442155327,0.21113255881332288
0.62125,0.6,0.68375,0.57375,0.73625,0.43,0.9425,0.825,0.85875,0.80125,0.79375,0.8,0.4928436279296875,0.4990386962890625,0.53338623046875,0.49675090245108966,0.5319213810400986,0.2589179228228708,0.17629874442155327,0.21113255881332288
0.62125,0.6,0.68375,0.57375,0.73625,0.43,0.9425,0.825,0.85875,0.80125,0.79375,0.8,0.4927154541015625,0.49849853515625,0.5348602294921875,0.4965744082785058,0.5364380273044564,0.2713408131844432,0.1796860438590395,0.22548602483979288
0.62125,0.6,0.68375,0.57375,0.73625,0.43,0.9425,0.825,0.85875,0.80125,0.79375,0.8,0.492828369140625,0.498297119140625,0.5359649658203125,0.49636582425350956,0.5424628969145108,0.41650737020177087,0.17958471625596956,0.3377859048913145
0.62125,0.59975,0.684,0.5715,0.73675,0.4305,0.9420000000000001,0.8272499999999999,0.8584999999999999,0.80125,0.79425,0.79975,0.4927947998046875,0.4985504150390625,0.53585205078125,0.495828319186392,0.549009226430214,0.41650737020177087,0.17958471625596956,0.3377859048913145
0.62125,0.5995,0.68425,0.5692499999999999,0.73725,0.431,0.9415,0.8295,0.8582500000000001,0.80125,0.79475,0.7995,0.4926910400390625,0.4990020751953125,0.53499755859375,0.49513838728110515,0.5545928603108095,0.4213880429602111,0.18195472874053917,0.3430866624958275
0.62125,0.59925,0.6845,0.5670000000000001,0.73775,0.4315,0.941,0.83175,0.858,0.80125,0.79525,0.79925,0.4922149658203125,0.499456787109375,0.5329864501953125,0.4939029279789131,0.558507821991435,0.4311352413600091,0.19425276804084626,0.3520524669414651
0.6204999999999999,0.59775,0.685,0.565,0.7390000000000001,0.433,0.94125,0.8355,0.858,0.80175,0.79625,0.7995,0.4912139892578125,0.4992218017578125,0.530560302734375,0.4934215802240959,0.5474689130752634,0.4311352413600091,0.19425276804084626,0.3520524669414651
0.61975,0.59625,0.6855,0.563,0.7402500000000001,0.43450000000000005,0.9415,0.8392499999999999,0.858,0.8022499999999999,0.7972499999999999,0.79975,0.4901123046875,0.49888916015625,0.528814697265625,0.4933654229745322,0.5340553547041562,0.4344639373623831,0.19696060549083458,0.35352096052713033
0.619,0.595,0.6857500000000001,0.56325,0.741,0.4355,0.9422499999999999,0.84075,0.8582500000000001,0.8027500000000001,0.7977500000000001,0.80025,0.48948974609375,0.4982757568359375,0.530694580078125,0.49436020843068396,0.5219975930601548,0.4560248875114131,0.19041571033865912,0.36022263987516473
0.6182500000000001,0.59375,0.6859999999999999,0.5635,0.74175,0.4365,0.943,0.8422499999999999,0.8584999999999999,0.80325,0.79825,0.8007500000000001,0.4890594482421875,0.4977813720703125,0.5340728759765625,0.4953790612839871,0.5132771759729348,0.4620306912890702,0.18443524605348954,0.3646235012205118
0.6175,0.5925,0.68625,0.56375,0.7425,0.4375,0.94375,0.84375,0.85875,0.80375,0.79875,0.80125,0.48895263671875,0.497119140625,0.539349365234375,0.49688728431600016,0.5070276773646254,0.4802473797506341,0.1705571596840299,0.3763510262141225
0.6175,0.5925,0.68625,0.56375,0.7425,0.4375,0.94375,0.84375,0.85875,0.80375,0.79875,0.80125,0.4893280029296875,0.4976165771484375,0.545709228515625,0.496782992209397,0.5229362218313731,0.4802473797506341,0.1705571596840299,0.3763510262141225
0.616,0.59125,0.6855,0.56175,0.74275,0.43524999999999997,0.94525,0.843,0.8590000000000001,0.8045,0.79925,0.8015000000000001,0.4898681640625,0.4980926513671875,0.551922607421875,0.49622141977649636,0.5429121542522853,0.4862446941562412,0.1694287741069852,0.38138183191555486
0.6145,0.59,0.68475,0.55975,0.743,0.433,0.94675,0.8422499999999999,0.85925,0.80525,0.79975,0.80175,0.49010009765625,0.4986358642578125,0.5558319091796875,0.4938788605817617,0.5678219029010172,0.5749760102245314,0.1649267912094147,0.48450936665262556
0.613,0.58875,0.684,0.55775,0.7432500000000001,0.43075,0.94825,0.8415,0.8595,0.8059999999999999,0.80025,0.802,0.4900787353515625,0.4994781494140625,0.5581268310546875,0.49111913336840296,0.5958604108268002,0.5749760102245314,0.1649267912094147,0.48450936665262556
0.6114999999999999,0.5875,0.68325,0.5557500000000001,0.7434999999999999,0.4285,0.94975,0.84075,0.8597499999999999,0.80675,0.8007500000000001,0.8022499999999999,0.4900360107421875,0.50101318359375,0.559033203125,0.48783794602981695,0.6274689169272967,0.5936053945513612,0.1711356483852599,0.5088196816029091
0.61,0.58625,0.6825,0.55375,0.74375,0.42625,0.95125,0.84,0.86,0.8075,0.80125,0.8025,0.48955078125,0.502587890625,0.560003662109375,0.4850621737490945,0.6568311330452438,0.6685766615251887,0.19202101613445696,0.5953757675452676
0.61,0.58625,0.6825,0.55375,0.74375,0.42625,0.95125,0.84,0.86,0.8075,0.80125,0.8025,0.4890106201171875,0.5041107177734375,0.5607574462890625,0.48257521010871496,0.6828720503011402,0.6907580712856263,0.20105083725291392,0.6227884858034413
0.61,0.58625,0.6825,0.55375,0.74375,0.42625,0.95125,0.84,0.86,0.8075,0.80125,0.8025,0.4872406005859375,0.5055023193359375,0.56312255859375,0.47842759666088996,0.7053108793103324,0.6907580712856263,0.20105083725291392,0.6227884858034413
0.61,0.58625,0.6825,0.55375,0.74375,0.42625,0.95125,0.84,0.86,0.8075,0.80125,0.8025,0.4850830078125,0.5056793212890625,0.5668670654296875,0.4734456468621332,0.7219254019103596,0.7253298269784443,0.23219883712189232,0.6757855945195596
0.61,0.59,0.6835,0.55875,0.74675,0.43450000000000005,0.95125,0.8425,0.8625,0.80825,0.80025,0.8007500000000001,0.4826080322265625,0.5043212890625,0.57216796875,0.4662575201727092,0.7344885772633855,0.7408425209805658,0.2467569820755205,0.6977182646901642
0.61,0.59375,0.6845,0.56375,0.7497499999999999,0.44275,0.95125,0.845,0.865,0.809,0.79925,0.799,0.4789093017578125,0.5040435791015625,0.5755279541015625,0.4586843151288634,0.7365102367419991,0.7408425209805658,0.2467569820755205,0.6977182646901642
0.61,0.5975,0.6855,0.56875,0.75275,0.451,0.95125,0.8475,0.8675,0.80975,0.79825,0.7972499999999999,0.475238037109375,0.506195068359375,0.5737091064453125,0.4545928588051287,0.7326514299269428,0.7052416148555131,0.36365426955730745,0.7250200175224042
0.61,0.60125,0.6865000000000001,0.57375,0.75575,0.45925,0.95125,0.85,0.87,0.8105,0.7972499999999999,0.7955,0.475775146484375,0.50830078125,0.5690673828125,0.4524267935006628,0.7199919833541573,0.7052416148555131,0.36365426955730745,0.7250200175224042
0.61,0.605,0.6875,0.57875,0.75875,0.4675,0.95125,0.8525,0.8725,0.81125,0.79625,0.79375,0.4767608642578125,0.5112030029296875,0.5631622314453125,0.4514881651686013,0.7066907393567041,0.6819407373298932,0.3698575276874037,0.7067440075555576
0.61,0.605,0.6875,0.57875,0.75875,0.4675,0.95125,0.8525,0.8725,0.81125,0.79625,0.79375,0.489892578125,0.51715087890625,0.5483306884765625,0.4496911331825618,0.6667468960290902,0.48357586090193094,0.36057142488461313,0.49208615694127117
0.61,0.605,0.6875,0.57875,0.75875,0.4675,0.95125,0.8525,0.8725,0.81125,0.79625,0.79375,0.5046844482421875,0.5214935302734375,0.5344482421875,0.44870437024440774,0.6304452502758608,0.4409685151612307,0.3501828016313255,0.44300407152399396
0.61,0.605,0.6875,0.57875,0.75875,0.4675,0.95125,0.8525,0.8725,0.81125,0.79625,0.79375,0.5377410888671875,0.528839111328125,0.5321044921875,0.4454151609524543,0.5881267581834151,0.39502825076813947,0.3400199496044709,0.3913600246156869
0.61,0.605,0.6875,0.57875,0.75875,0.4675,0.95125,0.8525,0.8725,0.81125,0.79625,0.79375,0.5527313232421875,0.538677978515625,0.5396728515625,0.45461692640617435,0.5352667477070892,0.30159008472635696,0.31236069721575205,0.2858873846765076
0.61275,0.60925,0.6872499999999999,0.58325,0.7585,0.47924999999999995,0.951,0.8525,0.8715,0.8085,0.7935,0.79125,0.5740814208984375,0.5416778564453125,0.5358306884765625,0.484316085770557,0.4660007995967827,0.2621022912368933,0.291029503698218,0.23872555956572364
0.6154999999999999,0.6135,0.687,0.58775,0.75825,0.491,0.95075,0.8525,0.8704999999999999,0.8057500000000001,0.7907500000000001,0.78875,0.585455322265625,0.5417694091796875,0.5381622314453125,0.5167027688393737,0.42012033410614236,0.22727324862464185,0.2669903522909921,0.19503950337803255
0.6182500000000001,0.61775,0.68675,0.59225,0.758,0.50275,0.9505,0.8525,0.8695,0.8029999999999999,0.7879999999999999,0.78625,0.5955963134765625,0.54163818359375,0.5419647216796875,0.5488969134838199,0.3690814224170087,0.22727324862464185,0.2669903522909921,0.19503950337803255
0.621,0.622,0.6865000000000001,0.59675,0.75775,0.5145000000000001,0.95025,0.8525,0.8684999999999999,0.80025,0.78525,0.78375,0.5841339111328125,0.5358551025390625,0.541290283203125,0.5802486990083897,0.3269153564098918,0.16435745463438786,0.18889898514382839,0.09120351154922395
0.62375,0.62625,0.68625,0.60125,0.7575,0.52625,0.95,0.8525,0.8675,0.7975,0.7825,0.78125,0.581982421875,0.5265838623046875,0.5327117919921875,0.6021179327059476,0.29485759432045977,0.15796301004860688,0.16858650564965072,0.06752206033032747
0.62375,0.62625,0.68625,0.60125,0.7575,0.52625,0.95,0.8525,0.8675,0.7975,0.7825,0.78125,0.5685516357421875,0.522869873046875,0.5356170654296875,0.6057360634791793,0.2756036836258784,0.15796301004860688,0.16858650564965072,0.06752206033032747
0.62375,0.62625,0.68625,0.60125,0.7575,0.52625,0.95,0.8525,0.8675,0.7975,0.7825,0.78125,0.546173095703125,0.5183349609375,0.539764404296875,0.6113036533275665,0.25869233112224455,0.1402495771813436,0.14297266674007605,0.03899478932610135
0.6245,0.6267499999999999,0.6865000000000001,0.6015,0.75775,0.52925,0.95025,0.85225,0.86575,0.7985,0.7827500000000001,0.7825,0.5194122314453125,0.5131072998046875,0.54189453125,0.6151383913338958,0.2542398644999747,0.14471613826100926,0.12785259494490447,0.03222942907533129
0.62525,0.62725,0.68675,0.60175,0.758,0.53225,0.9505,0.852,0.8640000000000001,0.7995,0.7829999999999999,0.78375,0.4926177978515625,0.5078125,0.54075927734375,0.6151303690668449,0.2601604421288993,0.14895937266394213,0.11340983822949366,0.02647352247524303
0.626,0.62775,0.687,0.602,0.75825,0.53525,0.95075,0.85175,0.86225,0.8005,0.78325,0.785,0.468621826171875,0.50355224609375,0.536529541015625,0.6104292061432739,0.2809386217070661,0.11670697566688149,0.14647309126972402,0.0014607128576740094
0.6267499999999999,0.62825,0.6872499999999999,0.6022500000000001,0.7585,0.53825,0.951,0.8515,0.8604999999999999,0.8015000000000001,0.7835,0.78625,0.4473785400390625,0.4998626708984375,0.530963134765625,0.6028800681515275,0.3123305195706778,0.11670697566688149,0.14647309126972402,0.0014607128576740094
0.6275,0.62875,0.6875,0.6025,0.75875,0.54125,0.95125,0.85125,0.85875,0.8025,0.78375,0.7875,0.430694580078125,0.4965850830078125,0.5248626708984375,0.5952105941464432,0.34588045946791734,0.11626031955891492,0.14647321030896582,0.0008207799157878618
0.6275,0.62875,0.6875,0.6025,0.75875,0.54125,0.95125,0.85125,0.85875,0.8025,0.78375,0.7875,0.4173370361328125,0.4919219970703125,0.5174896240234375,0.59233052800249,0.3793742444995876,0.11670555985337283,0.14692439844502986,0.0016435375243804787
0.62775,0.62825,0.6875,0.60175,0.75825,0.5415,0.94975,0.8495,0.8582500000000001,0.802,0.7845,0.789,0.4084747314453125,0.48724365234375,0.50787353515625,0.589883676324732,0.4171680682488347,0.11625607211838895,0.14613514726506355,0.00227884702673033
0.628,0.62775,0.6875,0.601,0.75775,0.54175,0.94825,0.84775,0.85775,0.8015000000000001,0.78525,0.7905,0.4045928955078125,0.4837005615234375,0.4995208740234375,0.5863457702295838,0.45060569439978704,0.11648081736313141,0.14715016967146288,0.0013692458601321019
0.62825,0.62725,0.6875,0.60025,0.75725,0.542,0.94675,0.846,0.85725,0.8009999999999999,0.7859999999999999,0.792,0.4060150146484375,0.4807647705078125,0.4925872802734375,0.5842117949971087,0.4799759322828915,0.11603132962814754,0.1465863354011276,0.0018246624225256296
0.6285000000000001,0.6267499999999999,0.6875,0.5995,0.7567499999999999,0.54225,0.94525,0.84425,0.85675,0.8005,0.78675,0.7935,0.3667816162109375,0.481488037109375,0.5170623779296875,0.5563337354237053,0.5020457284755508,0.11558891820620594,0.14658669251885292,0.0015500784487210097
0.62875,0.62625,0.6875,0.59875,0.75625,0.5425,0.94375,0.8425,0.85625,0.8,0.7875,0.795,0.3472747802734375,0.476995849609375,0.5202850341796875,0.5083273169676409,0.5052707581254162,0.11558891820620594,0.14658669251885292,0.0015500784487210097
0.62875,0.62625,0.6875,0.59875,0.75625,0.5425,0.94375,0.8425,0.85625,0.8,0.7875,0.795,0.3366363525390625,0.4794708251953125,0.540704345703125,0.43602085536478874,0.4729081416695422,0.11447369237254768,0.14658645444036936,0.0009139322965782773
0.62875,0.62625,0.6875,0.59875,0.75625,0.5425,0.94375,0.8425,0.85625,0.8,0.7875,0.795,0.3624542236328125,0.4766571044921875,0.583758544921875,0.36132369996110925,0.4308784567117587,0.1162546590593813,0.14647392594487818,0.0017346172693016079
0.62875,0.62625,0.6875,0.59875,0.75625,0.5425,0.94375,0.8425,0.85625,0.8,0.7875,0.795,0.3781494140625,0.4761199951171875,0.6033233642578125,0.3118170814301863,0.39153629796787703,0.11513660159870578,0.14602357248396833,0.001549889138004466
0.62875,0.62625,0.6875,0.59875,0.75625,0.5425,0.94375,0.8425,0.85625,0.8,0.7875,0.795,0.4344940185546875,0.466253662109375,0.5953125,0.29456076240927875,0.36687524728296894,0.11713948190326454,0.14658740675430365,0.0014612635274482732
0.62275,0.61875,0.6822499999999999,0.59375,0.7484999999999999,0.52425,0.9384999999999999,0.838,0.853,0.792,0.7822499999999999,0.7857500000000001,0.4753326416015625,0.4728546142578125,0.59998779296875,0.3169273900112256,0.3725150390404951,0.11557618414813108,0.145910209313323,0.0020962887760170535
0.61675,0.61125,0.677,0.58875,0.74075,0.506,0.93325,0.8334999999999999,0.8497499999999999,0.784,0.777,0.7765000000000001,0.50555419921875,0.4742523193359375,0.589434814453125,0.37046128810968326,0.40517448663118355,0.1162489985598477,0.1461358629009759,0.0014589123919230356
0.61075,0.60375,0.67175,0.58375,0.733,0.48774999999999996,0.9279999999999999,0.8290000000000001,0.8465,0.7759999999999999,0.7717499999999999,0.76725,0.4970062255859375,0.4807708740234375,0.5564697265625,0.4314480542034933,0.44364219787708903,0.11647232523658049,0.1467005318464654,0.0015502700610876058
0.60475,0.59625,0.6665000000000001,0.57875,0.7252500000000001,0.46950000000000003,0.9227500000000001,0.8245,0.84325,0.768,0.7665000000000001,0.758,0.4957366943359375,0.4850311279296875,0.5465545654296875,0.4666105083610352,0.4772242282227395,0.11713806608975588,0.14636234976332133,0.0013669816118962233
0.59875,0.58875,0.66125,0.57375,0.7175,0.45125,0.9175,0.82,0.84,0.76,0.76125,0.74875,0.49661865234375,0.4964996337890625,0.5333251953125,0.49411151230190864,0.5000962696905525,0.11579951357936487,0.14670124608191612,0.002280349428799932
0.59875,0.58875,0.66125,0.57375,0.7175,0.45125,0.9175,0.82,0.84,0.76,0.76125,0.74875,0.4955108642578125,0.4986083984375,0.5308837890625,0.4987966305031678,0.5031046932679493,0.11691190778600581,0.14647607005169203,0.0015533208982277907
0.59925,0.58875,0.66175,0.57325,0.718,0.44799999999999995,0.9157500000000001,0.81975,0.83825,0.7595000000000001,0.7595000000000001,0.7402500000000001,0.495001220703125,0.49925537109375,0.5300994873046875,0.4996871239154531,0.5030324911000215,0.11779673062988902,0.1465895522615791,0.0013700146112485302
0.59975,0.58875,0.6622499999999999,0.57275,0.7184999999999999,0.44475000000000003,0.914,0.8195,0.8365,0.759,0.75775,0.73175,0.4949981689453125,0.498968505859375,0.5302337646484375,0.5001845166121607,0.5018210991636124,0.1160115220115314,0.14670160460010315,0.0021880400273400318
0.60025,0.58875,0.6627500000000001,0.57225,0.7190000000000001,0.4415,0.9122499999999999,0.8192499999999999,0.83475,0.7585,0.7559999999999999,0.7232500000000001,0.4947662353515625,0.4989105224609375,0.530615234375,0.5008584035441888,0.49997593263421697,0.1160115220115314,0.14670160460010315,0.0021880400273400318
0.60075,0.58875,0.66325,0.57175,0.7195,0.43825000000000003,0.9105,0.8190000000000001,0.833,0.758,0.75425,0.71475,0.4949615478515625,0.4988067626953125,0.5313079833984375,0.5016125150758795,0.49864420374341945,0.1160115220115314,0.14681532348801216,0.00200720110921349
0.60125,0.58875,0.66375,0.57125,0.72,0.435,0.90875,0.81875,0.83125,0.7575,0.7525,0.70625,0.4951934814453125,0.499102783203125,0.5315765380859375,0.5026073005320313,0.498523866789031,0.1160115220115314,0.14681532348801216,0.00200720110921349
0.60125,0.58875,0.66375,0.57125,0.72,0.435,0.90875,0.81875,0.83125,0.7575,0.7525,0.70625,0.49542236328125,0.4992034912109375,0.5317474365234375,0.5035780185596633,0.4983553950717082,0.11645393067897204,0.14658967130082093,0.002098200296382898
0.60125,0.58875,0.66375,0.57125,0.72,0.435,0.90875,0.81875,0.83125,0.7575,0.7525,0.70625,0.49544677734375,0.4993896484375,0.5314483642578125,0.5036181308987051,0.4985880465252241,0.1146757956191557,0.1463638986739262,0.0016426744056120372
0.60125,0.58875,0.66375,0.57125,0.72,0.435,0.90875,0.81875,0.83125,0.7575,0.7525,0.70625,0.49541015625,0.4994415283203125,0.531097412109375,0.5033533895614084,0.4985800240699631,0.1162348486882642,0.1463638986739262,0.0017337685358459723
0.60125,0.58875,0.66375,0.57125,0.72,0.435,0.90875,0.81875,0.83125,0.7575,0.7525,0.70625,0.49542236328125,0.49935302734375,0.5308563232421875,0.5031688729021953,0.4983955074107499,0.11512245448162324,0.14636413675240978,0.002186523815370133
0.6035,0.59075,0.6657500000000001,0.57225,0.72275,0.441,0.90875,0.8190000000000001,0.8320000000000001,0.759,0.75325,0.71025,0.4955413818359375,0.49931640625,0.5306488037109375,0.5030966706793728,0.4980425190342138,0.11512245448162324,0.14636413675240978,0.002186523815370133
0.60575,0.59275,0.6677500000000001,0.57325,0.7254999999999999,0.447,0.90875,0.8192499999999999,0.8327500000000001,0.7605,0.754,0.7142499999999999,0.4957000732421875,0.499444580078125,0.530487060546875,0.5029522663592013,0.4977135980548291,0.11490195392290577,0.14647678428714273,0.0009088329908943178
0.608,0.59475,0.66975,0.5742499999999999,0.7282500000000001,0.45299999999999996,0.90875,0.8195,0.8334999999999999,0.762,0.7547499999999999,0.71825,0.4959197998046875,0.4996551513671875,0.5303680419921875,0.502671480142751,0.4972482951477972,0.11490195392290577,0.14647678428714273,0.0009088329908943178
0.61025,0.59675,0.67175,0.57525,0.731,0.45899999999999996,0.90875,0.81975,0.8342499999999999,0.7635,0.7555,0.72225,0.4960540771484375,0.49986572265625,0.5303192138671875,0.5020296831258719,0.49663056546533285,0.11645676230598932,0.14647690332638452,0.0021868097953887423
0.6125,0.59875,0.67375,0.57625,0.73375,0.465,0.90875,0.82,0.835,0.765,0.75625,0.72625,0.4961883544921875,0.50001220703125,0.5302886962890625,0.501251504212714,0.4958764539806947,0.11512245448162324,0.14579982492464566,0.0007284705143279572
0.6125,0.59875,0.67375,0.57625,0.73375,0.465,0.90875,0.82,0.835,0.765,0.75625,0.72625,0.4961456298828125,0.4999725341796875,0.53028564453125,0.5003610108317971,0.4949378257741066,0.11624192224680546,0.1465893127826339,0.0012764669220621686
0.6125,0.59875,0.67375,0.57625,0.73375,0.465,0.90875,0.82,0.835,0.765,0.75625,0.72625,0.49610595703125,0.4999847412109375,0.5303863525390625,0.499374247893643,0.4937424788109563,0.11624192224680546,0.1465893127826339,0.0012764669220621686
0.6125,0.59875,0.67375,0.57625,0.73375,0.465,0.90875,0.82,0.835,0.765,0.75625,0.72625,0.4959747314453125,0.4997650146484375,0.5305816650390625,0.49839550737938154,0.49255515430306696,0.11579243726632261,0.14681460925256143,0.0014588214767460948
0.6145,0.6022500000000001,0.6757500000000001,0.5792499999999999,0.73625,0.478,0.9109999999999999,0.821,0.836,0.765,0.7559999999999999,0.7254999999999999,0.4958526611328125,0.4995147705078125,0.530841064453125,0.49786602479889325,0.49141596458948034,0.11579102145281396,0.14613800700778976,0.0020971375094726886
0.6164999999999999,0.60575,0.6777500000000001,0.58225,0.73875,0.491,0.91325,0.8220000000000001,0.8370000000000001,0.765,0.75575,0.7247499999999999,0.4961639404296875,0.4993316650390625,0.530841064453125,0.49794624942992416,0.4896991575324711,0.11579102145281396,0.14613800700778976,0.0020971375094726886
0.6185,0.60925,0.67975,0.5852499999999999,0.74125,0.504,0.9155,0.823,0.838,0.765,0.7555,0.7240000000000001,0.4966033935546875,0.4994049072265625,0.530816650390625,0.49825110303568376,0.4886000800951895,0.11623626450177285,0.14681484733104502,0.0010934523692266366
0.6204999999999999,0.61275,0.68175,0.58825,0.74375,0.517,0.9177500000000001,0.8240000000000001,0.8390000000000001,0.765,0.7552500000000001,0.7232500000000001,0.496820068359375,0.499468994140625,0.5308807373046875,0.4987083834090338,0.4880465301175499,0.11623626450177285,0.14681484733104502,0.0010934523692266366
0.6225,0.61625,0.68375,0.59125,0.74625,0.53,0.92,0.825,0.84,0.765,0.755,0.7225,0.4970977783203125,0.499603271484375,0.53082275390625,0.49911752903513357,0.48765342937060374,0.11423338695171506,0.14647642716941736,0.0020958186639945062
0.62275,0.6175,0.68425,0.593,0.74725,0.5329999999999999,0.9215000000000001,0.82475,0.838,0.764,0.7552500000000001,0.7134999999999999,0.4975341796875,0.4997955322265625,0.5306243896484375,0.49921379862373905,0.4877577213517335,0.11423338695171506,0.14647642716941736,0.0020958186639945062
0.623,0.61875,0.68475,0.59475,0.7482500000000001,0.536,0.9229999999999999,0.8245,0.836,0.763,0.7555,0.7045,0.4975830078125,0.4999053955078125,0.53060302734375,0.4986201363541102,0.48912154000083835,0.11579243726632261,0.14658943322233733,0.00182635413531178
0.6232500000000001,0.62,0.68525,0.5965,0.74925,0.539,0.9245,0.8242499999999999,0.8340000000000001,0.762,0.75575,0.6955,0.497564697265625,0.499871826171875,0.5306060791015625,0.4977296429810353,0.4906297630955881,0.11556911058958981,0.14636342251695908,0.0021886045070145916
0.6235,0.62125,0.6857500000000001,0.5982500000000001,0.7502500000000001,0.542,0.9259999999999999,0.8240000000000001,0.8320000000000001,0.7609999999999999,0.7559999999999999,0.6865000000000001,0.4976593017578125,0.499652099609375,0.530523681640625,0.49675090251382636,0.4922904129030336,0.11578819258029766,0.1462510130607097,0.0015497119109506797
0.62375,0.6225,0.68625,0.6,0.75125,0.545,0.9275,0.82375,0.83,0.76,0.75625,0.6775,0.4977294921875,0.4994842529296875,0.530474853515625,0.4959085439272121,0.4939269954074328,0.11578819258029766,0.1462510130607097,0.0015497119109506797
0.62375,0.6225,0.68625,0.6,0.75125,0.545,0.9275,0.82375,0.83,0.76,0.75625,0.6775,0.4974639892578125,0.4992095947265625,0.5308563232421875,0.4955956678583494,0.49546730832322655,0.11556627896257253,0.14602535947305678,0.001275434632015109
0.62375,0.6225,0.68625,0.6,0.75125,0.545,0.9275,0.82375,0.83,0.76,0.75625,0.6775,0.4971221923828125,0.498974609375,0.5312835693359375,0.49580425188334565,0.4960449256666492,0.11623060400223925,0.14670243787479564,0.001913931919683075
0.62425,0.6232500000000001,0.6865000000000001,0.60075,0.7515000000000001,0.5465,0.9272499999999999,0.8240000000000001,0.8270000000000001,0.757,0.7555,0.6727500000000001,0.497216796875,0.498809814453125,0.5311248779296875,0.49682310466607005,0.49654231839472507,0.11623343287475554,0.1461382450862733,0.001548092700141078
0.62475,0.624,0.68675,0.6015,0.7517499999999999,0.5479999999999999,0.927,0.8242499999999999,0.8240000000000001,0.754,0.7547499999999999,0.6679999999999999,0.497357177734375,0.498876953125,0.530950927734375,0.4980585639525779,0.49707982344615853,0.11623343287475554,0.1461382450862733,0.001548092700141078
0.62525,0.62475,0.687,0.6022500000000001,0.752,0.5495,0.92675,0.8245,0.821,0.7509999999999999,0.754,0.66325,0.49739990234375,0.498956298828125,0.53092041015625,0.49943842757494145,0.4982109907672208,0.11511679398208964,0.1468152044487704,0.0015520567169382792
0.62575,0.6255,0.6872499999999999,0.603,0.75225,0.551,0.9265000000000001,0.82475,0.818,0.748,0.75325,0.6585,0.4976287841796875,0.499078369140625,0.5305633544921875,0.5004973927045496,0.5000802246623993,0.11600869038451413,0.14557452985517977,0.0016406944111572298
0.62625,0.62625,0.6875,0.60375,0.7525,0.5525,0.92625,0.825,0.815,0.745,0.7525,0.65375,0.497857666015625,0.499169921875,0.530194091796875,0.501371841206313,0.5027837947202993,0.11600869038451413,0.14557452985517977,0.0016406944111572298
0.62625,0.62625,0.6875,0.60375,0.7525,0.5525,0.92625,0.825,0.815,0.745,0.7525,0.65375,0.4976837158203125,0.4991851806640625,0.530340576171875,0.5018291215718209,0.5056638589821516,0.11512103866811461,0.1471543402463104,0.0010944927150488683
0.62625,0.62625,0.6875,0.60375,0.7525,0.5525,0.92625,0.825,0.815,0.745,0.7525,0.65375,0.4975921630859375,0.49927978515625,0.53050537109375,0.5020216607019793,0.5085760132062054,0.11556345009005621,0.14568741546839628,0.0014612652536858113
0.6265,0.62625,0.6875,0.60425,0.75275,0.55375,0.92425,0.8240000000000001,0.816,0.7465,0.7517499999999999,0.6535,0.4972900390625,0.4992706298828125,0.53076171875,0.5019173686894812,0.510533494109255,0.11556345009005621,0.14568741546839628,0.0014612652536858113
0.6267499999999999,0.62625,0.6875,0.60475,0.753,0.555,0.9222499999999999,0.823,0.8170000000000001,0.748,0.7509999999999999,0.65325,0.4967742919921875,0.4995758056640625,0.5311737060546875,0.5017970317350927,0.5111271564259363,0.11556345009005621,0.1461383641255151,0.0014586258364919125
0.627,0.62625,0.6875,0.60525,0.75325,0.55625,0.92025,0.8220000000000001,0.818,0.7495,0.7502500000000001,0.653,0.4964324951171875,0.49971923828125,0.5313323974609375,0.5012916165517558,0.5100922586934794,0.11689917372793093,0.14636437483089335,0.0021881286408669248
0.62725,0.62625,0.6875,0.60575,0.7535,0.5575,0.91825,0.821,0.8190000000000001,0.7509999999999999,0.7495,0.65275,0.496148681640625,0.4997161865234375,0.5315216064453125,0.5006498195348767,0.5083834740289945,0.11601293507053907,0.1465897903400627,0.0020071061661489586
0.6275,0.62625,0.6875,0.60625,0.75375,0.55875,0.91625,0.82,0.82,0.7525,0.74875,0.6525,0.4959869384765625,0.4995880126953125,0.5315948486328125,0.5003449659212751,0.5062575211890438,0.11601010619802275,0.14636461290937694,0.0018249265368687744
0.6275,0.62625,0.6875,0.60625,0.75375,0.55875,0.91625,0.82,0.82,0.7525,0.74875,0.6525,0.496160888671875,0.499627685546875,0.5314666748046875,0.5001524267989588,0.5046851185149427,0.11778540963082185,0.1458003010816128,0.002095804854094214
0.6275,0.62625,0.6875,0.60625,0.75375,0.55875,0.91625,0.82,0.82,0.7525,0.74875,0.6525,0.496527099609375,0.4993988037109375,0.531158447265625,0.49982350581173196,0.5037304453978326,0.11533729178630613,0.14670315211024634,0.0014596604281890198
0.6275,0.62625,0.6875,0.60625,0.75375,0.55875,0.91625,0.82,0.82,0.7525,0.74875,0.6525,0.4967010498046875,0.4992706298828125,0.53106689453125,0.49963898915251875,0.5040513439219563,0.11556061846303892,0.14625160825691863,0.0019184684719300122
0.6267499999999999,0.62525,0.687,0.605,0.753,0.55875,0.9157500000000001,0.81875,0.81975,0.75075,0.7497499999999999,0.6552500000000001,0.49681396484375,0.4993255615234375,0.530975341796875,0.4994865623457179,0.5044925794004684,0.11533729178630613,0.146364017713168,0.0007309183191552598
0.626,0.62425,0.6865000000000001,0.60375,0.75225,0.55875,0.91525,0.8175,0.8195,0.7490000000000001,0.75075,0.6579999999999999,0.4967529296875,0.4993682861328125,0.53094482421875,0.4990132370147934,0.5048696351741558,0.11533729178630613,0.146364017713168,0.0007309183191552598
0.62525,0.6232500000000001,0.6859999999999999,0.6025,0.7515000000000001,0.55875,0.91475,0.81625,0.8192499999999999,0.74725,0.7517499999999999,0.6607500000000001,0.4965972900390625,0.499346923828125,0.53092041015625,0.49850782183929854,0.5050060170390663,0.11600727457100547,0.1464770223656263,0.0012781666906234869
0.6245,0.62225,0.6855,0.60125,0.75075,0.55875,0.91425,0.815,0.8190000000000001,0.7454999999999999,0.75275,0.6635,0.4965606689453125,0.499237060546875,0.5307586669921875,0.4981307660734532,0.5049899720658076,0.11444822425639795,0.14625160825691863,0.0017316797884263419
0.62375,0.62125,0.685,0.6,0.75,0.55875,0.91375,0.81375,0.81875,0.74375,0.75375,0.66625,0.4965179443359375,0.4992034912109375,0.53079833984375,0.4980184516056941,0.504965904637288,0.11556486314906388,0.1458003010816128,0.0015509358133643312
0.62375,0.62125,0.685,0.6,0.75,0.55875,0.91375,0.81375,0.81875,0.74375,0.75375,0.66625,0.4964508056640625,0.4991607666015625,0.530902099609375,0.4979622943561304,0.504973927092549,0.11534153647233109,0.14670255691403744,0.0020968590098167372
0.62375,0.62125,0.685,0.6,0.75,0.55875,0.91375,0.81375,0.81875,0.74375,0.75375,0.66625,0.49625244140625,0.49915771484375,0.531048583984375,0.4981548334706046,0.5050140393688539,0.1144496400699066,0.14602571659078215,0.0010026447944238247
0.6232500000000001,0.6195,0.68425,0.599,0.7490000000000001,0.55325,0.914,0.813,0.82075,0.7440000000000001,0.754,0.6725,0.496246337890625,0.499090576171875,0.5311859130859375,0.4985720015519654,0.5053028480091969,0.11556061846303892,0.1461383641255151,0.0012765492060514232
0.62275,0.61775,0.6835,0.598,0.748,0.54775,0.91425,0.8122499999999999,0.8227500000000001,0.74425,0.75425,0.67875,0.4962554931640625,0.4992462158203125,0.5314208984375,0.4991977536740066,0.5057360610324481,0.11444822425639795,0.14647738088381332,0.0014576741041965782
0.62225,0.616,0.6827500000000001,0.597,0.747,0.54225,0.9145,0.8115000000000001,0.82475,0.7445,0.7545000000000001,0.685,0.496148681640625,0.499310302734375,0.5315887451171875,0.49955876450580367,0.5062655435815681,0.11556627896257253,0.14636449387013514,0.0015503713336897668
0.62175,0.61425,0.682,0.596,0.746,0.53675,0.91475,0.8107500000000001,0.82675,0.7447499999999999,0.7547499999999999,0.69125,0.496185302734375,0.49930419921875,0.5317047119140625,0.4997753710252713,0.5070677899232456,0.11645676230598932,0.14625160825691863,0.001823418380674048
0.62125,0.6125,0.68125,0.595,0.745,0.53125,0.915,0.81,0.82875,0.745,0.755,0.6975,0.496173095703125,0.4993560791015625,0.531365966796875,0.499478539898299,0.5078379463811424,0.11667726011020582,0.14625148921767683,0.0020966696991001938
