C0,C1,C2,C3,C4,C5,C6,C7,C8,C9,C10,C11,Ax,Ay,Az,Gr,Gp,Fx_norm,Fy_norm,Fz_norm
0.62625,0.60375,0.65375,0.5525,0.70125,0.5025,0.87375,0.785,0.80125,0.7475,0.74,0.68875,0.482103952692188,0.4994812739910779,0.65805581491856,0.4991991457650857,0.49626268023706654,0.5419167980939821,0.4546538385504509,0.4701070541259506
0.6259375,0.60375,0.6540625,0.5525,0.7009375,0.5025,0.87375,0.7846875,0.8009375,0.7478125,0.7403125,0.68875,0.48188997821350765,0.4994358854652972,0.6577769996887644,0.49926588361799523,0.49572877741379034,0.5419167980939821,0.4546538385504509,0.4701070541259506
0.62575,0.60375,0.65425,0.5525,0.70075,0.5025,0.87375,0.7845,0.8007500000000001,0.748,0.7404999999999999,0.68875,0.4819016495487084,0.49945533769063183,0.6578120136943666,0.4993059263297409,0.4958355579784456,0.5419167980939821,0.4546538385504509,0.4701070541259506
0.6255,0.60375,0.6545000000000001,0.5525,0.7005,0.5025,0.87375,0.78425,0.8005,0.7482500000000001,0.74075,0.68875,0.48204170557111736,0.49951758481170244,0.6577653283535636,0.49935931661206856,0.49588894826077323,0.5419167980939821,0.4546538385504509,0.4701070541259506
0.62525,0.60375,0.6547499999999999,0.5525,0.70025,0.5025,0.87375,0.784,0.80025,0.7484999999999999,0.741,0.68875,0.4819327731092437,0.4995798319327731,0.657609710550887,0.49962626802370663,0.49588894826077323,0.5419167980939821,0.4546538385504509,0.4701070541259506
0.625,0.60375,0.655,0.5525,0.7,0.5025,0.87375,0.78375,0.8,0.74875,0.74125,0.68875,0.4818549642079054,0.49947089947089945,0.6576719576719576,0.4996796583060343,0.49562199679694524,0.5419167980939821,0.4546538385504509,0.4701070541259506
0.625,0.60375,0.655,0.5525,0.7,0.5025,0.87375,0.78375,0.8,0.74875,0.74125,0.68875,0.4819483348895114,0.4995953937130408,0.6579053843759726,0.49994660971767235,0.4958355579262557,0.5419167980939821,0.4546538385504509,0.4701070541259506
0.625,0.60375,0.655,0.5525,0.7,0.5025,0.87375,0.78375,0.8,0.74875,0.74125,0.68875,0.48179271708683474,0.4996265172735761,0.657796451914099,0.5001067805646553,0.49562199679694524,0.5419167980939821,0.4546538385504509,0.4701070541259506
0.625,0.60375,0.655,0.55225,0.7,0.5025,0.87375,0.78375,0.8,0.7482500000000001,0.7415,0.6884999999999999,0.48141923436041084,0.4996732026143791,0.6578742608154373,0.5002135611293105,0.4952482648728418,0.5419167980939821,0.4546538385504509,0.4701070541259506
0.625,0.60375,0.655,0.552,0.7,0.5025,0.87375,0.78375,0.8,0.74775,0.74175,0.68825,0.48146591970121383,0.49945533769063183,0.6579053843759726,0.5003737319762933,0.49535504543749703,0.5419167980939821,0.4546538385504509,0.4701070541259506
0.625,0.60375,0.655,0.55175,0.7,0.5025,0.87375,0.78375,0.8,0.74725,0.742,0.688,0.4815126050420168,0.49956427015250543,0.657703081232493,0.500427122258621,0.49562199690132497,0.5419167980939821,0.4546538385504509,0.4701070541259506
0.625,0.60375,0.655,0.5515,0.7,0.5025,0.87375,0.78375,0.8,0.74675,0.74225,0.6877500000000001,0.48141923436041084,0.49956427015250543,0.6576252723311546,0.5003737319762933,0.49583555803063545,0.5419167980939821,0.4546538385504509,0.4701070541259506
0.625,0.60375,0.655,0.55125,0.7,0.5025,0.87375,0.78375,0.8,0.74625,0.7425,0.6875,0.4816215375038905,0.4995953937130408,0.657703081232493,0.5003737319762933,0.4962626802892564,0.5419167980939821,0.4546538385504509,0.4701070541259506
0.625,0.60375,0.655,0.55125,0.7,0.5025,0.87375,0.78375,0.8,0.74625,0.7425,0.6875,0.48176159352629944,0.4992997198879552,0.6576719576719576,0.5005339028232763,0.4964762414185669,0.5419167980939821,0.4546538385504509,0.4701070541259506
0.625,0.60375,0.655,0.55125,0.7,0.5025,0.87375,0.78375,0.8,0.74625,0.7425,0.6875,0.4818082788671024,0.4993775287892935,0.6577342047930284,0.5004805125409486,0.4964228511362393,0.5419167980939821,0.4546538385504509,0.4701070541259506
0.625,0.60375,0.655,0.55125,0.7,0.5025,0.8734999999999999,0.78375,0.8,0.7465,0.74225,0.6877500000000001,0.4817304699657641,0.4993464052287582,0.6578898225957049,0.5005339028232763,0.49652963170089454,0.5419167980939821,0.4546538385504509,0.4701070541259506
0.625,0.60375,0.655,0.55125,0.7,0.5025,0.8732500000000001,0.78375,0.8,0.74675,0.742,0.688,0.4817304699657641,0.4992997198879552,0.6579053843759726,0.5008008542349143,0.49658302198322213,0.5419167980939821,0.4546538385504509,0.4701070541259506
0.625,0.60375,0.655,0.55125,0.7,0.5025,0.873,0.78375,0.8,0.747,0.74175,0.68825,0.4815748521630875,0.4992063492063492,0.6579053843759726,0.5013347570581905,0.4967965831125326,0.5419167980939821,0.4546538385504509,0.4701070541259506
0.625,0.60375,0.655,0.55125,0.7,0.5025,0.87275,0.78375,0.8,0.74725,0.7415,0.6884999999999999,0.4815748521630875,0.4995331465919701,0.6579987550575785,0.5014415376228457,0.4970635344719809,0.5419167980939821,0.4546538385504509,0.4701070541259506
0.625,0.60375,0.655,0.55125,0.7,0.5025,0.8725,0.78375,0.8,0.7475,0.74125,0.68875,0.4815904139433551,0.4995953937130408,0.6580143168378463,0.5020822210107772,0.4970101441896533,0.5419167980939821,0.4546538385504509,0.4701070541259506
0.625,0.60375,0.655,0.55125,0.7,0.5025,0.8725,0.78375,0.8,0.7475,0.74125,0.68875,0.4815592903828198,0.4997510115157174,0.6580765639589169,0.502669514116381,0.4973838761659466,0.5419167980939821,0.4546538385504509,0.4701070541259506
0.625,0.60375,0.6552500000000001,0.55125,0.7,0.5025,0.8725,0.78425,0.8,0.7475,0.7415,0.6892499999999999,0.4816837846249611,0.4995953937130408,0.6580143168378463,0.5028296849633639,0.49775760814223996,0.5419167980939821,0.4546538385504509,0.4701070541259506
0.625,0.60375,0.6555,0.55125,0.7,0.5025,0.8725,0.78475,0.8,0.7475,0.74175,0.68975,0.4819016495487084,0.49947089947089945,0.6580298786181139,0.5028296849633639,0.49781099842456755,0.5419167980939821,0.4546538385504509,0.4701070541259506
0.625,0.60375,0.65575,0.55125,0.7,0.5025,0.8725,0.78525,0.8,0.7475,0.742,0.69025,0.482010582010582,0.4992685963274199,0.6580454403983815,0.503096636375002,0.49781099842456755,0.5419167980939821,0.4546538385504509,0.4701070541259506
0.625,0.60375,0.6559999999999999,0.55125,0.7,0.5025,0.8725,0.7857500000000001,0.8,0.7475,0.74225,0.69075,0.48204170557111736,0.4992530345471522,0.6579676314970433,0.5034169781211576,0.4981847304008609,0.5419167980939821,0.4546538385504509,0.4701070541259506
0.625,0.60375,0.65625,0.55125,0.7,0.5025,0.8725,0.78625,0.8,0.7475,0.7425,0.69125,0.48204170557111736,0.49894179894179896,0.6578898225957049,0.5036839294806058,0.49802455955387803,0.5419167980939821,0.4546538385504509,0.4701070541259506
0.625,0.60375,0.65625,0.55125,0.7,0.5025,0.8725,0.78625,0.8,0.7475,0.7425,0.69125,0.482057267351385,0.49909741674447555,0.6579987550575785,0.5041644420737442,0.4980779498362057,0.5419167980939821,0.4546538385504509,0.4701070541259506
0.625,0.60375,0.65625,0.55125,0.7,0.5025,0.8725,0.78625,0.8,0.7475,0.7425,0.69125,0.4819483348895114,0.4992997198879552,0.6582166199813259,0.5047517351793481,0.49797116927155044,0.5419167980939821,0.4546538385504509,0.4701070541259506
0.62475,0.60375,0.6559999999999999,0.55125,0.70025,0.50225,0.872,0.7855,0.8,0.74775,0.7425,0.69175,0.4820261437908497,0.49936196700902585,0.6582010582010582,0.5051788574379691,0.49850507209482664,0.5419167980939821,0.4546538385504509,0.4701070541259506
0.6245,0.60375,0.65575,0.55125,0.7005,0.502,0.8715,0.78475,0.8,0.748,0.7425,0.6922499999999999,0.4819794584500467,0.49942421413009647,0.6580610021786493,0.5050186865387963,0.4987720235064647,0.5419167980939821,0.4546538385504509,0.4701070541259506
0.62425,0.60375,0.6555,0.55125,0.70075,0.5017499999999999,0.871,0.784,0.8,0.7482500000000001,0.7425,0.6927500000000001,0.48204170557111736,0.49973544973544975,0.6581854964207905,0.5050186865387963,0.49903897491810284,0.5419134022299529,0.44995291362328566,0.4711676916949354
0.624,0.60375,0.6552500000000001,0.55125,0.701,0.5015,0.8704999999999999,0.78325,0.8,0.7484999999999999,0.7425,0.69325,0.482057267351385,0.49981325863678805,0.6581699346405229,0.5051788573335894,0.4991457554827581,0.5392452969678139,0.44878264683275426,0.4703255250427963
0.62375,0.60375,0.655,0.55125,0.70125,0.50125,0.87,0.7825,0.8,0.74875,0.7425,0.69375,0.48204170557111736,0.499906629318394,0.6579365079365079,0.5055525892576928,0.49957287774137904,0.5397741664532965,0.44525819971514174,0.46906100415057245
0.62375,0.6035,0.655,0.551,0.70125,0.5017499999999999,0.87075,0.78425,0.8,0.7484999999999999,0.74275,0.6945,0.48171490818549645,0.5001556178026766,0.6577808901338313,0.5061932726456242,0.4997864388706895,0.5397741664532965,0.44525819971514174,0.46906100415057245
0.62375,0.6032500000000001,0.655,0.5507500000000001,0.70125,0.50225,0.8715,0.7859999999999999,0.8,0.7482500000000001,0.743,0.69525,0.48166822284469346,0.5002489884842826,0.6578898225957049,0.5070475171628662,0.4997864388706895,0.5424490634434939,0.4476061836030585,0.47137967510090895
0.62375,0.603,0.655,0.5505,0.70125,0.50275,0.87225,0.7877500000000001,0.8,0.748,0.7432500000000001,0.696,0.48169934640522877,0.5002956738250856,0.6576875194522254,0.508008542349143,0.4997330485883619,0.5429677519436283,0.4393845294217794,0.47138647635206105
0.62375,0.60275,0.655,0.55025,0.70125,0.50325,0.873,0.7895,0.8,0.74775,0.7434999999999999,0.69675,0.4816370992841581,0.5003112356053533,0.65765639589169,0.5084890549422815,0.5000533902823276,0.5424456675794648,0.4487838861205872,0.47349254838053584
0.62375,0.6025,0.655,0.55,0.70125,0.50375,0.87375,0.79125,0.8,0.7475,0.74375,0.6975,0.4816059757236228,0.5002956738250856,0.65765639589169,0.5085958356113165,0.5001601708469828,0.5424456675794648,0.4487838861205872,0.47349254838053584
0.62375,0.6025,0.655,0.55,0.70125,0.50375,0.87375,0.79125,0.8,0.7475,0.74375,0.6975,0.4816370992841581,0.5001556178026766,0.6579520697167756,0.5082754939173507,0.4997864388706895,0.5461749076765984,0.44173499188536197,0.47287371561958064
0.62375,0.6025,0.655,0.55,0.70125,0.50375,0.87375,0.79125,0.8,0.7475,0.74375,0.6975,0.4815904139433551,0.5000622471210706,0.6582010582010582,0.507955152223385,0.49957287774137904,0.5525620786572621,0.44527184646116047,0.47835488194412573
0.62375,0.6025,0.655,0.55,0.70125,0.50375,0.87375,0.79125,0.8,0.7475,0.74375,0.6975,0.48146591970121383,0.5000622471210706,0.6582166199813259,0.5074746396302466,0.4997864388706895,0.5680282903221938,0.43823783825978685,0.4851342949115744
0.62375,0.6025,0.655,0.55,0.70125,0.50375,0.87375,0.79125,0.8,0.7475,0.74375,0.6975,0.4815126050420168,0.5002178649237473,0.6580921257391845,0.5072076881664186,0.49962626802370663,0.5680282903221938,0.43823783825978685,0.4851342949115744
0.62375,0.6025,0.6547499999999999,0.55025,0.701,0.5035000000000001,0.8734999999999999,0.7922499999999999,0.8005,0.74775,0.7440000000000001,0.698,0.4813569872393402,0.5003112356053533,0.6581699346405229,0.5064602241094522,0.4992525360474133,0.5674858439873337,0.4382427954111184,0.48513391868912015
0.62375,0.6025,0.6545000000000001,0.5505,0.70075,0.50325,0.8732500000000001,0.79325,0.8009999999999999,0.748,0.74425,0.6984999999999999,0.4812791783380019,0.5003423591658885,0.6578120136943666,0.5061932726456242,0.4989321943534476,0.5685469788223282,0.44881861533962203,0.48536061598245706
0.62375,0.6022500000000001,0.65425,0.5507500000000001,0.7005,0.50325,0.87275,0.79525,0.8015000000000001,0.7490000000000001,0.7447499999999999,0.6992499999999999,0.48138811079987553,0.5005757858699035,0.657749766573296,0.5060331018508313,0.4987720235064647,0.5712150840844673,0.4476458699734249,0.4859927853641233
0.62375,0.602,0.654,0.551,0.70025,0.50325,0.87225,0.7972499999999999,0.802,0.75,0.7452500000000001,0.7,0.4815748521630875,0.5006535947712418,0.657703081232493,0.5056059795922103,0.498451681812499,0.5781616675066584,0.4358923329475359,0.4859976217503023
0.62375,0.60175,0.65375,0.55125,0.7,0.50325,0.87175,0.79925,0.8025,0.7509999999999999,0.74575,0.70075,0.48137254901960785,0.5006069094304388,0.6579676314970433,0.5052856378982445,0.4979177789892228,0.575479985395142,0.4370725286205871,0.48579728528751553
0.62375,0.6015,0.65375,0.55125,0.7,0.5035000000000001,0.8715,0.80025,0.8025,0.7517499999999999,0.746,0.701,0.48140367258014316,0.5005757858699035,0.6577808901338313,0.5051254671034515,0.4977042178599123,0.5744256422882059,0.43237408226908763,0.4876879054846346
0.62375,0.60125,0.65375,0.55125,0.7,0.50375,0.87125,0.80125,0.8025,0.7525,0.74625,0.70125,0.4814347961406785,0.5007625272331154,0.6578275754746343,0.5046449546146928,0.49802455955387803,0.5744188505601474,0.43707128933275413,0.48600528977544794
0.62375,0.60125,0.65375,0.55125,0.69975,0.50375,0.871,0.8005,0.8025,0.75225,0.746,0.70125,0.4812480547774665,0.5006847183317772,0.657609710550887,0.5042178323038821,0.49781099842456755,0.5744154546961182,0.43237408226908763,0.48621420623724476
0.62375,0.60125,0.65375,0.55125,0.6995,0.50375,0.87075,0.79975,0.8025,0.752,0.74575,0.70125,0.4811391223155929,0.5007780890133832,0.6576875194522254,0.5038441003275886,0.49743726644827424,0.5744154546961182,0.43237408226908763,0.48621420623724476
0.62375,0.60125,0.65375,0.55125,0.6992499999999999,0.50375,0.8704999999999999,0.799,0.8025,0.7517499999999999,0.7454999999999999,0.70125,0.4811858076563959,0.5008403361344538,0.657563025210084,0.5035771489159506,0.4978643887068952,0.5744154546961182,0.43237408226908763,0.48621420623724476
0.62375,0.60125,0.65375,0.55125,0.6990000000000001,0.50375,0.8702500000000001,0.79825,0.8025,0.7515000000000001,0.7452500000000001,0.70125,0.4811546840958606,0.5008714596949891,0.657749766573296,0.5059263212339862,0.5001067804602756,0.5829486531814968,0.43238277186377483,0.4883244712184431
0.62375,0.60125,0.65375,0.55125,0.69875,0.50375,0.87,0.7975,0.8025,0.75125,0.745,0.70125,0.48107687519452225,0.5007780890133832,0.657843137254902,0.5061398823632967,0.4999999998956203,0.5829486531814968,0.43238277186377483,0.4883244712184431
0.62375,0.60125,0.65375,0.55125,0.69875,0.50375,0.87,0.7975,0.8025,0.75125,0.745,0.70125,0.4811858076563959,0.5009959539371304,0.6579365079365079,0.5059797115163137,0.4999999998956203,0.5882848703125143,0.43827132819098874,0.49507463056360834
0.62375,0.60125,0.65375,0.55125,0.69875,0.50375,0.87,0.7975,0.8025,0.75125,0.745,0.70125,0.4810924369747899,0.5008714596949891,0.6578742608154373,0.5061398823632967,0.4999999998956203,0.5914818516668754,0.4300447168583781,0.4952839711065462
0.62375,0.60125,0.65375,0.55125,0.69875,0.50375,0.87,0.7975,0.8025,0.75125,0.745,0.70125,0.48099906629318395,0.5008247743541862,0.6576719576719576,0.506246662875762,0.49967965820165455,0.5946924032638745,0.43240137576112503,0.49465860297603215
0.62375,0.6015,0.6535,0.55125,0.6990000000000001,0.50375,0.87125,0.797,0.80325,0.7517499999999999,0.7447499999999999,0.7015,0.48095238095238096,0.5008558979147214,0.6574074074074074,0.5040576613525194,0.49743726644827424,0.5930888220940198,0.43122241937590666,0.49339927209250606
0.62375,0.60175,0.65325,0.55125,0.6992499999999999,0.50375,0.8725,0.7965000000000001,0.804,0.75225,0.7445,0.70175,0.4811546840958606,0.5010893246187363,0.6573140367258015,0.5040042710701919,0.4965296316487047,0.5930888220940198,0.43122241937590666,0.49339927209250606
0.62375,0.602,0.653,0.55125,0.6995,0.50375,0.87375,0.7959999999999999,0.80475,0.75275,0.74425,0.7020000000000001,0.4811858076563959,0.5008558979147214,0.6572051042639278,0.5038974905055366,0.49604911915994593,0.5888442893607811,0.4253500029502341,0.48898043700269395
0.62375,0.6022500000000001,0.65275,0.55125,0.69975,0.50375,0.875,0.7955,0.8055,0.75325,0.7440000000000001,0.7022499999999999,0.4811391223155929,0.5010737628384687,0.6572517896047307,0.5036839293762261,0.49562199695351483,0.587261070161623,0.42182927369612017,0.48730182281148376
0.62375,0.6025,0.6525,0.55125,0.7,0.50375,0.87625,0.795,0.80625,0.75375,0.74375,0.7025,0.4813569872393402,0.5011826953003423,0.657609710550887,0.5035237585814331,0.4952482649772215,0.587261070161623,0.4171320812123105,0.4870769920069306
0.62375,0.60275,0.65275,0.55175,0.7005,0.50375,0.8759999999999999,0.79625,0.8065000000000001,0.75375,0.7434999999999999,0.7025,0.4816215375038905,0.5011048863990041,0.6577808901338313,0.5035771489159506,0.49519487469489387,0.5915463334429941,0.41009062270408264,0.48814357070011377
0.62375,0.603,0.653,0.55225,0.701,0.50375,0.87575,0.7975,0.80675,0.75375,0.7432500000000001,0.7025,0.4816837846249611,0.5008870214752568,0.6578275754746343,0.5032568072219848,0.49546182605434214,0.5915463334429941,0.41009062270408264,0.48814357070011377
0.624,0.6032500000000001,0.65325,0.5529999999999999,0.701,0.50375,0.8755,0.8,0.80675,0.754,0.743,0.7022499999999999,0.4815904139433551,0.5009648303765951,0.657796451914099,0.5029364655280191,0.49498131346120366,0.5931329418994422,0.4230119479448374,0.4881342223032995
0.62425,0.6035,0.6535,0.55375,0.701,0.50375,0.8752500000000001,0.8025,0.80675,0.75425,0.74275,0.7020000000000001,0.4816526610644258,0.5008870214752568,0.6578120136943666,0.5028830752456915,0.49450080086806525,0.5899325712877912,0.42184042728661625,0.4877083610850015
0.6245,0.60375,0.65375,0.5545,0.701,0.50375,0.875,0.805,0.80675,0.7545000000000001,0.7425,0.70175,0.4815904139433551,0.5009803921568627,0.6577186430127606,0.5027229043987086,0.4939668980969789,0.5963333191178324,0.4230131872326702,0.4904467753181781
0.62475,0.60375,0.65375,0.55475,0.7005,0.50375,0.875,0.80625,0.8065000000000001,0.7547499999999999,0.7425,0.7015,0.48145035792094615,0.5013227513227513,0.6577808901338313,0.5022957821400876,0.4932194340922023,0.5995404814575418,0.4218491168813034,0.4940318243436663
0.625,0.60375,0.65375,0.555,0.7,0.50375,0.875,0.8075,0.80625,0.755,0.7425,0.70125,0.48132586367880487,0.5012760659819483,0.6579520697167756,0.5025627335517258,0.49343299527370266,0.5979538663943544,0.4242008186327188,0.49233701796343493
0.625,0.60375,0.65375,0.555,0.7,0.50375,0.875,0.8075,0.80625,0.755,0.7425,0.70125,0.4813103018985372,0.501291627762216,0.6581543728602552,0.503096636375002,0.49428723979094463,0.5979538663943544,0.4242008186327188,0.49233701796343493
0.625,0.60375,0.65375,0.555,0.7,0.50375,0.875,0.8075,0.80625,0.755,0.7425,0.70125,0.4812791783380019,0.5011826953003423,0.6581543728602552,0.5034169780689677,0.4954618260021523,0.6048800878458491,0.4042417527472352,0.49654660556886676
0.62525,0.604,0.65375,0.55525,0.70025,0.50425,0.8752500000000001,0.8072499999999999,0.8059999999999999,0.755,0.74225,0.701,0.4811858076563959,0.5008714596949891,0.6582788671023965,0.503523758633623,0.4963694607495319,0.5931770617048644,0.42537232471108305,0.48199966392832505
0.6255,0.60425,0.65375,0.5555,0.7005,0.50475,0.8755,0.807,0.8057500000000001,0.755,0.742,0.70075,0.4811702458761282,0.5007780890133832,0.6583255524431995,0.5036839294806058,0.497330485883619,0.5846574466756026,0.4335939643125053,0.4802999839384917
0.62575,0.6045,0.65375,0.5557500000000001,0.70075,0.50525,0.87575,0.80675,0.8055,0.755,0.74175,0.7005,0.4813103018985372,0.5009492685963274,0.6583877995642702,0.5037373197629335,0.49797116927155044,0.5819927306707535,0.4359419482004222,0.4788169376236956
0.626,0.60475,0.65375,0.556,0.701,0.50575,0.8759999999999999,0.8065000000000001,0.80525,0.755,0.7415,0.70025,0.4810924369747899,0.5009803921568627,0.6580454403983815,0.5038974905577265,0.49797116927155044,0.5788025344377115,0.44534006561139716,0.47924085524754795
0.6265,0.605,0.654,0.55725,0.7022499999999999,0.50725,0.87575,0.8057500000000001,0.80475,0.7555,0.741,0.7,0.4809212573918456,0.50119825708061,0.6580765639589169,0.501975440446122,0.49492792323106594,0.5788025344377115,0.44534006561139716,0.47924085524754795
0.6267499999999999,0.605,0.65425,0.55825,0.70325,0.50825,0.8752500000000001,0.80525,0.8045,0.7559999999999999,0.74075,0.7,0.48138811079987553,0.501338313103019,0.6580143168378463,0.5005872931056038,0.49183128696044365,0.5372248437580468,0.4864086064078559,0.4482627741392273
0.627,0.605,0.6545000000000001,0.55925,0.7042499999999999,0.50925,0.8747499999999999,0.80475,0.80425,0.7565000000000001,0.7404999999999999,0.7,0.4815904139433551,0.5011204481792717,0.6582788671023965,0.5,0.48953550482035596,0.5324378580832085,0.5016754223810047,0.4436286440881994
0.62725,0.605,0.6547499999999999,0.56025,0.70525,0.51025,0.87425,0.80425,0.804,0.757,0.7402500000000001,0.7,0.48171490818549645,0.5011826953003423,0.6581543728602552,0.4995194874590514,0.48766684483450956,0.4893040952964013,0.5744652119439528,0.40396470986052024
0.6275,0.605,0.655,0.56125,0.70625,0.51125,0.87375,0.80375,0.80375,0.7575,0.74,0.7,0.4821817615935263,0.5011826953003423,0.6585278555866791,0.49893219440563746,0.4869193808819228,0.4893040952964013,0.5744652119439528,0.40396470986052024
0.6275,0.605,0.6559999999999999,0.5625,0.7072499999999999,0.5125,0.8734999999999999,0.8035,0.804,0.75725,0.7397499999999999,0.69875,0.4823840647370059,0.5011204481792717,0.6582633053221288,0.5005339028232763,0.4887880407111997,0.48557484859252836,0.580331431930461,0.4041683445844696
0.6275,0.605,0.657,0.56375,0.70825,0.51375,0.8732500000000001,0.80325,0.80425,0.757,0.7395,0.6975,0.4819950202303144,0.5012293806411453,0.6579053843759726,0.5017084890344838,0.49071009077061434,0.48398484427205113,0.5521420514287246,0.4024501486004911
0.62775,0.6065,0.659,0.56625,0.71,0.516,0.87225,0.804,0.80475,0.7567499999999999,0.7402500000000001,0.69525,0.4818860877684407,0.501478369125428,0.657843137254902,0.501975440446122,0.4873998931619221,0.48398484427205113,0.5521420514287246,0.4024501486004911
0.628,0.608,0.6609999999999999,0.56875,0.71175,0.51825,0.87125,0.80475,0.80525,0.7565000000000001,0.741,0.693,0.48221288515406163,0.5012760659819483,0.6582788671023965,0.5022957821400876,0.4843566471214376,0.4818354275100464,0.5497965752761872,0.4064435438943303
0.62825,0.6095,0.6629999999999999,0.57125,0.7134999999999999,0.5205,0.8702500000000001,0.8055,0.8057500000000001,0.75625,0.74175,0.69075,0.48258636788048553,0.5010893246187363,0.6580143168378463,0.5029898558625366,0.48131340087219365,0.4759601533014587,0.5674212748600592,0.4074601009539912
0.6285000000000001,0.611,0.664,0.5725,0.7142499999999999,0.5215,0.8695,0.8065000000000001,0.8059999999999999,0.75625,0.74275,0.68975,0.4830999066293184,0.5013227513227513,0.6579831932773109,0.5028296850155537,0.4788040574462259,0.4759601533014587,0.5674212748600592,0.4074601009539912
0.62875,0.6125,0.665,0.57375,0.715,0.5225,0.86875,0.8075,0.80625,0.75625,0.74375,0.68875,0.4838624338624339,0.5012605042016807,0.6575785869903517,0.5019754404983118,0.4763481042503959,0.47543467968000525,0.5732974237290872,0.4074542263001912
0.62875,0.6125,0.665,0.57375,0.715,0.5225,0.86875,0.8075,0.80625,0.75625,0.74375,0.68875,0.4843137254901961,0.5011826953003423,0.6570961718020542,0.5010144154164147,0.47794981282460425,0.4802488124468591,0.5697730057711884,0.40575587040069167
0.6295000000000001,0.614,0.6657500000000001,0.5755,0.71525,0.524,0.87075,0.80875,0.80625,0.755,0.7440000000000001,0.6855,0.48411142234671645,0.5011671335200747,0.6565981948334889,0.49951948751124126,0.47875066711170844,0.4743871216943881,0.5885568039752387,0.3985954570867447
0.63025,0.6154999999999999,0.6665000000000001,0.57725,0.7155,0.5255,0.87275,0.81,0.80625,0.75375,0.74425,0.6822499999999999,0.4839402427637722,0.50119825708061,0.6567382508558979,0.4976508275775847,0.4790176186799161,0.4952370595530494,0.49103262259009733,0.37155300716674927
0.631,0.617,0.6672499999999999,0.579,0.71575,0.527,0.8747499999999999,0.81125,0.80625,0.7525,0.7445,0.679,0.48390911920323687,0.5011826953003423,0.6570339246809835,0.4966898024956875,0.4789642284497784,0.48884649270835645,0.5133470643509247,0.3708898094031655
0.6317499999999999,0.6185,0.6679999999999999,0.58075,0.716,0.5285,0.8767499999999999,0.8125,0.80625,0.75125,0.7447499999999999,0.6757500000000001,0.48348895113601,0.5014005602240896,0.657749766573296,0.49567538713146275,0.4789108382196406,0.48884649270835645,0.5133470643509247,0.3708898094031655
0.6325,0.62,0.66875,0.5825,0.71625,0.53,0.87875,0.81375,0.80625,0.75,0.745,0.6725,0.4838157485216309,0.5017429193899782,0.6579987550575785,0.49124399359389054,0.4828083288295569,0.4616331417037571,0.565013761416593,0.3577701666837897
0.63275,0.62025,0.669,0.58275,0.716,0.5305,0.879,0.8145,0.8065000000000001,0.74925,0.7440000000000001,0.67175,0.48404917522564583,0.5019452225334579,0.6579520697167756,0.48841430847395706,0.48793379593300845,0.43757265224809666,0.5802359338680437,0.3366046903807585
0.633,0.6204999999999999,0.66925,0.583,0.71575,0.531,0.87925,0.81525,0.80675,0.7484999999999999,0.743,0.6709999999999999,0.4838779956427015,0.502349828820417,0.6580143168378463,0.4850507206351271,0.493486385295081,0.42741551062216687,0.634261753832268,0.3401432633037687
0.63325,0.62075,0.6695,0.58325,0.7155,0.5315,0.8795000000000001,0.816,0.807,0.74775,0.742,0.67025,0.4835978835978836,0.5023187052598818,0.6580298786181139,0.4814735716669867,0.498932194196878,0.4199502386998412,0.655401015390803,0.3352901292433009
0.6335000000000001,0.621,0.66975,0.5835,0.71525,0.532,0.8797499999999999,0.81675,0.8072499999999999,0.747,0.741,0.6695,0.48331777155306566,0.5022408963585434,0.6579676314970433,0.4767752269265358,0.5033635877866401,0.4199502386998412,0.655401015390803,0.3352901292433009
0.633,0.62125,0.6695,0.5835,0.71475,0.532,0.87925,0.81625,0.8072499999999999,0.746,0.74,0.66875,0.48294428882664175,0.501384998443822,0.6578742608154373,0.47778964255170986,0.504911905974141,0.35592241164221106,0.6753104514435436,0.309601214714091
0.63225,0.62125,0.669,0.58325,0.7145,0.5315,0.8785,0.815,0.807,0.74575,0.74,0.66875,0.4823996265172736,0.5009025832555244,0.6578898225957049,0.4774693011708833,0.5046983448448306,0.35592241164221106,0.6753104514435436,0.309601214714091
0.6315,0.62125,0.6685,0.583,0.7142499999999999,0.531,0.87775,0.81375,0.80675,0.7454999999999999,0.74,0.66875,0.48250855897914724,0.500093370681606,0.6579053843759726,0.47843032635716026,0.5040576614568991,0.36018052783156673,0.664744545817703,0.31402639506812297
0.6305,0.62075,0.6677500000000001,0.5825,0.713,0.52925,0.877,0.8107500000000001,0.80675,0.7452500000000001,0.7402500000000001,0.66925,0.4824774354186119,0.4995487083722378,0.6579209461562403,0.47987186403219584,0.5032568072219848,0.39535069216661045,0.6354047417106187,0.33699746130538427
0.6295000000000001,0.62025,0.667,0.5820000000000001,0.71175,0.5275,0.87625,0.8077500000000001,0.80675,0.745,0.7404999999999999,0.66975,0.48253968253968255,0.498895113600996,0.657749766573296,0.48360918369074957,0.5030432460926744,0.40654521079280903,0.6130939886535762,0.34562172029487986
0.62925,0.61975,0.66675,0.58175,0.71075,0.52625,0.87625,0.8059999999999999,0.807,0.745,0.74075,0.67025,0.4822284469343293,0.4988639900404606,0.6577808901338313,0.4855846238759222,0.5016017084698287,0.39738132636172574,0.5555585930257343,0.38163886513233164
0.629,0.61925,0.6665000000000001,0.5815,0.70975,0.525,0.87625,0.80425,0.8072499999999999,0.745,0.741,0.6707500000000001,0.48219732337379395,0.49866168689698104,0.6579831932773109,0.48772023496026756,0.5002669514116381,0.4138747274348386,0.516809503337322,0.402092927374274
0.62875,0.61875,0.66625,0.58125,0.70875,0.52375,0.87625,0.8025,0.8075,0.745,0.74125,0.67125,0.48221288515406163,0.49861500155617805,0.6579676314970433,0.48910838219640596,0.4993059263297409,0.4138747274348386,0.516809503337322,0.402092927374274
0.62875,0.61875,0.66625,0.58125,0.70875,0.52375,0.87625,0.8025,0.8075,0.745,0.74125,0.67125,0.4819016495487084,0.49831932773109244,0.6580610021786493,0.4907100906662346,0.49850507209482664,0.4143900200709438,0.4980194649545367,0.40588812256392715
0.62825,0.61875,0.66625,0.58125,0.7084999999999999,0.52225,0.877,0.80175,0.80825,0.7454999999999999,0.74125,0.672,0.4818082788671024,0.4984438219732337,0.6581232492997199,0.4925787505477013,0.49797116927155044,0.4266490693961661,0.46278738665673963,0.41791422353776125
0.62775,0.61875,0.66625,0.58125,0.70825,0.52075,0.87775,0.8009999999999999,0.809,0.746,0.74125,0.6727500000000001,0.48174603174603176,0.49827264239028946,0.6580765639589169,0.49348638550384044,0.4972237052667739,0.44476641360983016,0.41698196700610485,0.427220026120766
0.62725,0.61875,0.66625,0.58125,0.708,0.51925,0.8785,0.80025,0.80975,0.7465,0.74125,0.6735,0.4816837846249611,0.49856831621537506,0.657796451914099,0.4938601175323237,0.49658302193103226,0.44476641360983016,0.41698196700610485,0.427220026120766
0.6267499999999999,0.61875,0.66625,0.58125,0.7077500000000001,0.5177499999999999,0.87925,0.7995,0.8105,0.747,0.74125,0.67425,0.48099906629318395,0.4989262371615313,0.6575474634298164,0.49337960504356493,0.49492792323106594,0.44849226444967394,0.3981857321841548,0.43018312226480376
0.62625,0.61875,0.66625,0.58125,0.7075,0.51625,0.88,0.79875,0.81125,0.7475,0.74125,0.675,0.48132586367880487,0.498895113600996,0.657609710550887,0.49156433544442585,0.49305926340178907,0.45219774671208185,0.36647936945151705,0.4417738501063457
0.62575,0.6185,0.6657500000000001,0.58125,0.70675,0.51525,0.88,0.7977500000000001,0.8115000000000001,0.74725,0.741,0.67525,0.48141923436041084,0.4988639900404606,0.6578898225957049,0.4887880408155794,0.4912439939070297,0.4532520964257573,0.36060817773382053,0.4451475551710919
0.62525,0.6182500000000001,0.66525,0.58125,0.706,0.51425,0.88,0.79675,0.81175,0.747,0.74075,0.6755,0.4814347961406785,0.4989573607220666,0.6581388110799875,0.48654564885343965,0.490016017570064,0.4532520964257573,0.36060817773382053,0.4451475551710919
0.62475,0.618,0.66475,0.58125,0.70525,0.51325,0.88,0.7957500000000001,0.812,0.74675,0.7404999999999999,0.6757500000000001,0.4816526610644258,0.4985527544351074,0.6582477435418612,0.48489055004909354,0.48905499238378713,0.45856795158607827,0.3559171816891754,0.4599101081719453
0.62425,0.61775,0.66425,0.58125,0.7045,0.51225,0.88,0.79475,0.8122499999999999,0.7465,0.7402500000000001,0.6759999999999999,0.48221288515406163,0.4980859010270775,0.6585901027077498,0.48408969576198935,0.48884143125447665,0.4659585607469368,0.37121626288554993,0.4892030623194322
0.62375,0.6175,0.66375,0.58125,0.70375,0.51125,0.88,0.79375,0.8125,0.74625,0.74,0.67625,0.4823529411764706,0.4978057889822596,0.6585589791472144,0.48489055004909354,0.48916177284406265,0.4670162997179021,0.3747407100031626,0.4917286702431046
0.62375,0.6175,0.66375,0.58125,0.70375,0.51125,0.88,0.79375,0.8125,0.74625,0.74,0.67625,0.4825552443199502,0.49757236227824464,0.6584656084656084,0.48579818479647324,0.48942872420351086,0.4670162997179021,0.3747407100031626,0.4917286702431046
0.62375,0.6175,0.66375,0.58125,0.70375,0.51125,0.88,0.79375,0.8125,0.74625,0.74,0.67625,0.48292872704637413,0.497463429816371,0.6584500466853408,0.4869727711120606,0.48958889489392415,0.4626461926897155,0.3782862395937913,0.5226392320502594
0.624,0.6175,0.664,0.581,0.70375,0.511,0.8817499999999999,0.79325,0.8134999999999999,0.746,0.74,0.67425,0.48291316526610645,0.4978369125427949,0.6583099906629318,0.48766684473012983,0.48964228533282134,0.4626461926897155,0.3782862395937913,0.5226392320502594
0.62425,0.6175,0.66425,0.58075,0.70375,0.51075,0.8835,0.7927500000000001,0.8145,0.74575,0.74,0.6722499999999999,0.4830687830687831,0.49797696856520385,0.6583099906629318,0.4874532836008193,0.4890549921750277,0.4626461926897155,0.3782862395937913,0.5226392320502594
0.6245,0.6175,0.6645,0.5805,0.70375,0.5105,0.8852500000000001,0.7922499999999999,0.8155,0.7454999999999999,0.74,0.67025,0.4830843448490507,0.49828820417055714,0.6581543728602552,0.4861185265948187,0.488040576758613,0.44343716407827277,0.41588490567685543,0.5293258363888125
0.625,0.61775,0.66475,0.5802499999999999,0.70375,0.5105,0.887,0.7927500000000001,0.8172499999999999,0.745,0.7395,0.6657500000000001,0.4830843448490507,0.4981170245876128,0.6579987550575785,0.4865990390835774,0.4860651363646809,0.44343716407827277,0.41588490567685543,0.5293258363888125
0.6255,0.618,0.665,0.58,0.70375,0.5105,0.88875,0.79325,0.8190000000000001,0.7445,0.7390000000000001,0.66125,0.4830065359477124,0.49794584500466854,0.6579520697167756,0.48702616134219834,0.4836625739208873,0.4359684962919179,0.41470594929163695,0.5293194113601146
0.62575,0.6182500000000001,0.665,0.58,0.70375,0.51075,0.88875,0.79425,0.81975,0.74425,0.7384999999999999,0.65875,0.4831310301898537,0.4977124183006536,0.6580298786181139,0.4870795517810956,0.48109984036916154,0.4359684962919179,0.41470594929163695,0.5293194113601146
0.626,0.6185,0.665,0.58,0.70375,0.511,0.88875,0.79525,0.8205,0.7440000000000001,0.738,0.65625,0.48336445689386864,0.4973856209150327,0.6580610021786493,0.4876134547087515,0.47923118043550494,0.41567797748152346,0.43585264657716943,0.5324391104330942
0.62625,0.61875,0.665,0.58,0.70375,0.51125,0.88875,0.79625,0.82125,0.74375,0.7375,0.65375,0.48341114223467163,0.49730781201369434,0.6578898225957049,0.48782701562930253,0.4768820082218491,0.41567797748152346,0.43585264657716943,0.5324391104330942
0.62625,0.61875,0.665,0.58,0.70375,0.51125,0.88875,0.79625,0.82125,0.74375,0.7375,0.65375,0.4838157485216309,0.497323373793962,0.6581232492997199,0.4858515752353704,0.47560064144598624,0.4167458974378371,0.43468114049880524,0.5351705240039238
0.62625,0.61875,0.665,0.58,0.70375,0.51125,0.88875,0.79625,0.82125,0.74375,0.7375,0.65375,0.48395580454403986,0.49747899159663866,0.6579987550575785,0.48387613463267887,0.47463961605094984,0.39650288769015474,0.4605250302681474,0.5308868538102
0.6267499999999999,0.61925,0.665,0.5805,0.7042499999999999,0.51275,0.88925,0.7965000000000001,0.82175,0.7432500000000001,0.7384999999999999,0.6509999999999999,0.4842047930283224,0.4973856209150327,0.6580765639589169,0.4825413774179188,0.47399893245425895,0.3900987506028236,0.4663974466938199,0.5367675085578212
0.62725,0.61975,0.665,0.581,0.70475,0.51425,0.8897499999999999,0.79675,0.8222499999999999,0.74275,0.7395,0.64825,0.48411142234671645,0.4974011826953003,0.6582321817615935,0.4806727174842622,0.47271756567839607,0.3810231057825849,0.4605250302681474,0.5354843786128946
0.62775,0.62025,0.665,0.5815,0.70525,0.51575,0.8902500000000001,0.797,0.8227500000000001,0.74225,0.7404999999999999,0.6455,0.48442265795206974,0.4969654528478058,0.6586834733893557,0.47949813158619375,0.4718099309310164,0.3655195660402894,0.4440842150611117,0.5423951410755702
0.62825,0.62075,0.665,0.5820000000000001,0.70575,0.51725,0.89075,0.7972499999999999,0.82325,0.74175,0.7415,0.64275,0.4842047930283224,0.496265172735761,0.6586056644880174,0.47944474135605597,0.4706887348455668,0.34091663024976876,0.41354561138362567,0.5528493314591463
0.62875,0.62125,0.665,0.5825,0.70625,0.51875,0.89125,0.7975,0.82375,0.74125,0.7425,0.64,0.484593837535014,0.4954092748210395,0.6586523498288204,0.4805659374415056,0.47042178369487797,0.3430490809051061,0.4064942385727347,0.5568357061495192
0.62875,0.62125,0.665,0.5825,0.70625,0.51875,0.89125,0.7975,0.82375,0.74125,0.7425,0.64,0.4849828820417056,0.494786803610333,0.6588702147525677,0.48216764601571394,0.47031500323460246,0.3435575884198922,0.3924076036927803,0.5618716603934186
0.62875,0.62125,0.665,0.5825,0.70625,0.51875,0.89125,0.7975,0.82375,0.74125,0.7425,0.64,0.48485838779956425,0.4946311858076564,0.6585901027077498,0.48499733092688796,0.47031500323460246,0.347222346740907,0.3983097921861561,0.5823940276166345
0.62875,0.62125,0.665,0.5825,0.70625,0.51875,0.89125,0.7975,0.82375,0.74125,0.7425,0.64,0.4844693432928727,0.49444444444444446,0.6583566760037348,0.4871329420112333,0.469994661436257,0.3402689781973967,0.3994875092835416,0.5836233670564561
0.62925,0.62225,0.6657500000000001,0.583,0.70675,0.5205,0.892,0.797,0.82475,0.74075,0.7425,0.6385000000000001,0.4847183317771553,0.49497354497354495,0.6583099906629318,0.4882541378879235,0.4691404169190151,0.3402689781973967,0.3994875092835416,0.5836233670564561
0.62975,0.6232500000000001,0.6665000000000001,0.5835,0.7072499999999999,0.52225,0.89275,0.7965000000000001,0.82575,0.7402500000000001,0.7425,0.637,0.4846249610955493,0.49526921879863056,0.6584033613445378,0.4894821143292689,0.4678056599130144,0.34295066030891325,0.4030156742646529,0.5846573925367853
0.63025,0.62425,0.6672499999999999,0.584,0.7077500000000001,0.524,0.8935,0.7959999999999999,0.82675,0.7397499999999999,0.7425,0.6355,0.4845160286336757,0.4951136009959539,0.6583099906629318,0.49038974907664856,0.46577682908018514,0.33599389590137374,0.4112410463094308,0.5892401702169172
0.63075,0.62525,0.6679999999999999,0.5845,0.70825,0.52575,0.89425,0.7955,0.8277500000000001,0.73925,0.7425,0.634,0.4850140056022409,0.49491129785247434,0.6584344849050732,0.491137213133615,0.4640149498155635,0.33171541774132157,0.4100695402310666,0.593637135216287
0.63125,0.62625,0.66875,0.585,0.70875,0.5275,0.895,0.795,0.82875,0.73875,0.7425,0.6325,0.4855119825708061,0.4952225334578276,0.6586212262682851,0.49284570216809886,0.46203950921287196,0.33171541774132157,0.4100695402310666,0.593637135216287
0.63125,0.62625,0.66875,0.585,0.70875,0.5275,0.895,0.795,0.82875,0.73875,0.7425,0.6325,0.4853408029878618,0.49544039838157483,0.659041394335512,0.49482114261422083,0.4601174592578371,0.31032981866911924,0.4042082628160332,0.5998739662754644
0.63125,0.62625,0.66875,0.585,0.70875,0.5275,0.895,0.795,0.82875,0.73875,0.7425,0.6325,0.4853096794273265,0.4954715219421102,0.6591503267973856,0.49460758148491035,0.4566470905412127,0.3124622693244566,0.3924634153848312,0.6025874900033007
0.6317499999999999,0.627,0.66925,0.5855,0.70975,0.5285,0.894,0.7955,0.82825,0.7390000000000001,0.74275,0.63125,0.4852941176470588,0.49572051042639276,0.659274821039527,0.49423384956080685,0.45371062496100373,0.3124622693244566,0.3924634153848312,0.6025874900033007
0.63225,0.62775,0.66975,0.586,0.71075,0.5295000000000001,0.893,0.7959999999999999,0.8277500000000001,0.73925,0.743,0.63,0.48554310613134144,0.49606286959228135,0.6592125739184562,0.49551521628447986,0.45141484297748563,0.3055258668876136,0.3865872665158031,0.6038257883234027
0.63275,0.6285000000000001,0.67025,0.5865,0.71175,0.5305,0.892,0.7965000000000001,0.8272499999999999,0.7395,0.7432500000000001,0.62875,0.48588546529723,0.4962029256146903,0.658948023653906,0.495782167696118,0.4505072086476249,0.2665687790141152,0.3630963177857094,0.6028654479383839
0.63325,0.62925,0.6707500000000001,0.5870000000000001,0.7127500000000001,0.5315,0.8909999999999999,0.797,0.82675,0.7397499999999999,0.7434999999999999,0.6275,0.4872082166199813,0.4957983193277311,0.6580921257391845,0.4973838761659466,0.4526962101708675,0.26981325621770974,0.35017375325712186,0.5893194109081159
0.63375,0.63,0.67125,0.5875,0.71375,0.5325,0.89,0.7975,0.82625,0.74,0.74375,0.62625,0.48849984438219735,0.49615624027388733,0.6572051042639278,0.5019220502159842,0.4599572887761833,0.2671315741061932,0.3443013222515924,0.589727597647511
0.63375,0.63,0.67125,0.5875,0.71375,0.5325,0.89,0.7975,0.82625,0.74,0.74375,0.62625,0.48966697790227204,0.4966386554621849,0.656224712107065,0.5081687133005056,0.47058195511594936,0.2671315741061932,0.3443013222515924,0.589727597647511
0.63375,0.63,0.67125,0.5875,0.71375,0.5325,0.89,0.7975,0.82625,0.74,0.74375,0.62625,0.4895580454403984,0.4965919701213819,0.6566448801742919,0.5128136677586289,0.48051254747231714,0.27196267958645376,0.3513502310666745,0.5846447113142011
0.634,0.63025,0.6715000000000001,0.58775,0.7140000000000001,0.53325,0.8895000000000001,0.7977500000000001,0.82575,0.7397499999999999,0.743,0.626,0.4895269218798631,0.496265172735761,0.6567849361967009,0.5177255738893396,0.4863854782152162,0.27196267958645376,0.3513502310666745,0.5846447113142011
0.63425,0.6305,0.67175,0.588,0.7142499999999999,0.534,0.889,0.7979999999999999,0.82525,0.7395,0.74225,0.62575,0.48898225957049485,0.49648303765950824,0.6571117335823218,0.5220501867578768,0.49028296877294264,0.2762309701544183,0.3607458553221268,0.5829582296866506
0.6345000000000001,0.63075,0.672,0.58825,0.7145,0.5347500000000001,0.8885,0.79825,0.82475,0.73925,0.7415,0.6255,0.4886243386243386,0.49652972300031123,0.6569249922191098,0.5244527492016704,0.49236518973153,0.272518696163952,0.37014397273310173,0.5720018381617588
0.63475,0.631,0.6722499999999999,0.5885,0.71475,0.5355,0.888,0.7985,0.8242499999999999,0.7390000000000001,0.74075,0.62525,0.4886399004046063,0.4963429816370993,0.6567693744164332,0.5248264812301536,0.49311265368411666,0.27683111314407816,0.39949990216187065,0.5547239907842302
0.635,0.63125,0.6725,0.58875,0.715,0.53625,0.8875,0.79875,0.82375,0.73875,0.74,0.625,0.489760348583878,0.4962340491752256,0.6556489262371615,0.52578750662519,0.49845168176030913,0.26194807836213907,0.4394217517963368,0.5355521651250615
0.635,0.63125,0.6725,0.58875,0.715,0.53625,0.8875,0.79875,0.82375,0.73875,0.74,0.625,0.48960473078120137,0.49684095860566446,0.6560379707438531,0.5278163370405003,0.5083288839387291,0.26427737020986203,0.5286623000286975,0.48047634452861854
0.635,0.63125,0.6725,0.58875,0.715,0.53625,0.8875,0.79875,0.82375,0.73875,0.74,0.625,0.48930905695611576,0.49710550887021476,0.6565670712729537,0.5282968495292591,0.5164442068525273,0.2648198165447222,0.5333582532246742,0.4726923670907668
0.63525,0.6315,0.6722499999999999,0.589,0.7155,0.537,0.8885,0.8,0.8234999999999999,0.7384999999999999,0.7397499999999999,0.626,0.48849984438219735,0.4971210706504824,0.6575474634298164,0.5274959956596739,0.5203950877447713,0.2648198165447222,0.5333582532246742,0.4726923670907668
0.6355,0.6317499999999999,0.672,0.5892499999999999,0.716,0.53775,0.8895000000000001,0.80125,0.82325,0.7382500000000001,0.7395,0.627,0.4882664176781824,0.49721444133208836,0.6580298786181139,0.5289909233560878,0.5257341157687739,0.263263751044319,0.5685940202262563,0.4623945243898031
0.63575,0.632,0.6722499999999999,0.58975,0.71675,0.539,0.8897499999999999,0.8035,0.8225,0.7395,0.7395,0.62875,0.4875038904450669,0.49777466542172427,0.6585589791472144,0.5274426050120172,0.5246663103309809,0.2664776985053474,0.580341360812981,0.4598848946204694
0.636,0.63225,0.6725,0.5902499999999999,0.7175,0.54025,0.89,0.8057500000000001,0.82175,0.74075,0.7395,0.6305,0.48778400248988485,0.49786803610333025,0.6579987550575785,0.5253069937189124,0.5238654560438768,0.2664776985053474,0.580341360812981,0.4598848946204694
0.63625,0.6325,0.6727500000000001,0.59075,0.71825,0.5415,0.8902500000000001,0.8079999999999999,0.821,0.742,0.7395,0.63225,0.4879551820728291,0.4980859010270775,0.6575007780890134,0.524132407403325,0.5243993587627732,0.2670472985389625,0.6073530387971886,0.4430615252971067
0.63625,0.6325,0.67325,0.591,0.7184999999999999,0.542,0.8895000000000001,0.809,0.8205,0.7434999999999999,0.7397499999999999,0.633,0.4883131030189854,0.49824151882975415,0.6572051042639278,0.5233315531162208,0.5285638006799479,0.2670472985389625,0.6073530387971886,0.4430615252971067
0.63625,0.6325,0.67375,0.59125,0.71875,0.5425,0.88875,0.81,0.82,0.745,0.74,0.63375,0.4873327108621226,0.4984438219732337,0.6578275754746343,0.5206620391042195,0.5296316061177408,0.2825915622226511,0.6202631958675904,0.429034980404706
0.63625,0.6325,0.67375,0.59125,0.71875,0.5425,0.88875,0.81,0.82,0.745,0.74,0.63375,0.48657018362900717,0.49839713663243074,0.6580765639589169,0.5206086488740818,0.5320875592091912,0.2825915622226511,0.6202631958675904,0.429034980404706
0.63625,0.6325,0.67375,0.59125,0.71875,0.5425,0.88875,0.81,0.82,0.745,0.74,0.63375,0.48565203859321504,0.4986305633364457,0.6582166199813259,0.5211959422406349,0.5320341689790534,0.29167738802823806,0.6061641535294502,0.4235672730064048
0.63625,0.63275,0.67375,0.59175,0.7190000000000001,0.54275,0.889,0.8105,0.82025,0.7454999999999999,0.741,0.6355,0.48470276999688766,0.498755057578587,0.6583877995642702,0.5214628938088426,0.5301655092541563,0.29328775431941184,0.6049876902997543,0.4202149833745768
0.63625,0.633,0.67375,0.59225,0.71925,0.5429999999999999,0.88925,0.8109999999999999,0.8205,0.746,0.742,0.63725,0.4835200746965453,0.49931528166822287,0.658994708994709,0.5222637480959468,0.524559529661946,0.30350258599340196,0.643745455002997,0.4023830055217797
0.63625,0.63325,0.67375,0.59275,0.7195,0.54325,0.8895000000000001,0.8115000000000001,0.82075,0.7465,0.743,0.639,0.4829754123871771,0.49968876439464677,0.6586834733893557,0.5227442605847055,0.5175120128122189,0.3051129588913151,0.6449182149490509,0.39839947310563745
0.63625,0.6335000000000001,0.67375,0.59325,0.7197499999999999,0.5435,0.8897499999999999,0.812,0.821,0.747,0.7440000000000001,0.64075,0.48257080610021785,0.49985994397759104,0.6587145969498911,0.5230112117353943,0.5093966896896612,0.3051129588913151,0.6449182149490509,0.39839947310563745
0.63625,0.63375,0.67375,0.59375,0.72,0.54375,0.89,0.8125,0.82125,0.7475,0.745,0.6425,0.4826797385620915,0.49978213507625274,0.6585745409274821,0.5226908699370488,0.5019220501637943,0.3153006434732897,0.6249430237418825,0.3912865382677747
0.63625,0.63375,0.67375,0.59375,0.72,0.54375,0.89,0.8125,0.82125,0.7475,0.745,0.6425,0.48330220977279803,0.49982882041705573,0.6582477435418612,0.5226374797069111,0.4956219967447554,0.3314246815692023,0.6061244671590837,0.3602563363907541
0.63625,0.63375,0.67375,0.59375,0.72,0.54375,0.89,0.8125,0.82125,0.7475,0.745,0.6425,0.48401805166511047,0.4998755057578587,0.6576252723311546,0.5224773085989789,0.49247197024399536,0.3378220335352144,0.593205620493995,0.35921792253473045
0.63625,0.63375,0.67375,0.59375,0.72,0.54375,0.89,0.8125,0.82125,0.7475,0.745,0.6425,0.48482726423902894,0.5002801120448179,0.6572829131652661,0.521623064081737,0.49124399369827026,0.3378220335352144,0.593205620493995,0.35921792253473045
0.63625,0.634,0.67375,0.59375,0.7202500000000001,0.54375,0.8902500000000001,0.81325,0.8205,0.7482500000000001,0.745,0.6425,0.4857142857142857,0.5009648303765951,0.6566760037348273,0.5180993055524937,0.49455419130696243,0.3431684382583194,0.5802780988140759,0.3556661898022686
0.63625,0.63425,0.67375,0.59375,0.7204999999999999,0.54375,0.8905,0.8140000000000001,0.81975,0.7490000000000001,0.745,0.6425,0.48555866791160907,0.5009648303765951,0.6566760037348273,0.5166043776473204,0.4936999467897205,0.3517118111223069,0.577930114926159,0.3563090928238493
0.636,0.6345000000000001,0.6735,0.5935,0.7215,0.544,0.89,0.8140000000000001,0.81875,0.7505,0.745,0.6435,0.4849361967009026,0.5010893246187363,0.6570183629007158,0.5151628399722847,0.4929524827327541,0.3549053966126388,0.5755796670424332,0.3542187928914785
0.63575,0.63475,0.67325,0.59325,0.7225,0.54425,0.8895000000000001,0.8140000000000001,0.8177500000000001,0.752,0.745,0.6445000000000001,0.48440709617180205,0.5009648303765951,0.6573295985060691,0.5139882538654569,0.4914575546188213,0.3709208397337497,0.5673580128611542,0.35383577982132036
0.6355,0.635,0.6729999999999999,0.593,0.7234999999999999,0.5445,0.889,0.8140000000000001,0.81675,0.7535,0.745,0.6455,0.48428260192966077,0.5010270774976657,0.6575941487706194,0.5136145218369736,0.48980245602323463,0.3682493386075814,0.5661803103436254,0.3515274197591653
0.63525,0.635,0.6727500000000001,0.59275,0.72425,0.5447500000000001,0.88825,0.81325,0.8165,0.75425,0.745,0.6465000000000001,0.48403361344537815,0.5008403361344538,0.6578120136943666,0.5149492788429743,0.4861719168249564,0.3682493386075814,0.5661803103436254,0.3515274197591653
0.635,0.635,0.6725,0.5925,0.725,0.545,0.8875,0.8125,0.81625,0.755,0.745,0.6475,0.4843137254901961,0.501244942421413,0.6576875194522254,0.5132941800386281,0.48766684473012983,0.3682493386075814,0.5661803103436254,0.3515274197591653
0.635,0.635,0.6725,0.5925,0.725,0.545,0.8875,0.8125,0.81625,0.755,0.745,0.6475,0.48507625272331156,0.5015873015873016,0.6575007780890134,0.5105712756399196,0.49135077431511537,0.3826713815441859,0.5603091186259289,0.34775105696275305
0.635,0.635,0.6725,0.5925,0.725,0.545,0.8875,0.8125,0.81625,0.755,0.745,0.6475,0.48590102707749766,0.5020697167755991,0.6570961718020542,0.5057127598959162,0.4969567541160851,0.3826713815441859,0.5603091186259289,0.34775105696275305
0.635,0.635,0.6725,0.5925,0.725,0.545,0.8875,0.8125,0.81625,0.755,0.745,0.6475,0.48593215063803297,0.5019763460939931,0.6572362278244631,0.499252535786464,0.5039508809444337,0.3837393015004995,0.6049517217928867,0.34501030961859674
0.635,0.635,0.6725,0.5925,0.725,0.545,0.8875,0.8125,0.81625,0.755,0.745,0.6475,0.48554310613134144,0.5018051665110489,0.6576719576719576,0.4928990921372873,0.5109983980029202,0.3954898433109357,0.6214012120147526,0.3471608370494419
0.635,0.635,0.6725,0.59275,0.7254999999999999,0.54525,0.88725,0.8125,0.81625,0.7552500000000001,0.7445,0.64775,0.4852163087457205,0.5014939309056956,0.6583722377840024,0.48729311233631756,0.5174052318822346,0.4008328455632722,0.5955660118400975,0.3494852231246224
0.635,0.635,0.6725,0.593,0.726,0.5455,0.887,0.8125,0.81625,0.7555,0.7440000000000001,0.648,0.48443821973233736,0.5009648303765951,0.6583877995642702,0.4837693537548845,0.5208222100033922,0.4008328455632722,0.5955660118400975,0.3494852231246224
0.635,0.635,0.6725,0.59325,0.7265,0.5457500000000001,0.8867499999999999,0.8125,0.81625,0.75575,0.7434999999999999,0.64825,0.48341114223467163,0.5003267973856209,0.6587612822906941,0.48328884126612576,0.5211425515929783,0.42164884460185953,0.5133272211657416,0.3457824058356841
0.635,0.635,0.6725,0.5935,0.727,0.546,0.8865000000000001,0.8125,0.81625,0.7559999999999999,0.743,0.6485,0.4824774354186119,0.5001711795829443,0.6590258325552443,0.48563801368854104,0.5171382804705966,0.42272016042220234,0.532128413139023,0.34661436662287115
0.635,0.635,0.6725,0.59375,0.7275,0.54625,0.88625,0.8125,0.81625,0.75625,0.7425,0.64875,0.4820261437908497,0.4999688764394647,0.6589324618736383,0.4888948210670955,0.511532300982766,0.42272016042220234,0.532128413139023,0.34661436662287115
0.635,0.635,0.6725,0.59375,0.7275,0.54625,0.88625,0.8125,0.81625,0.75625,0.7425,0.64875,0.4821817615935263,0.4999844382197323,0.6584189231248054,0.49231179934482266,0.5059797116206934,0.4179365706113932,0.5861691337169556,0.34468842405610567
0.635,0.63475,0.6722499999999999,0.59325,0.72625,0.546,0.8855,0.8109999999999999,0.81575,0.7567499999999999,0.743,0.65075,0.48216619981325864,0.5000622471210706,0.6583099906629318,0.49540843566763476,0.5008542445172419,0.4377117967856825,0.5744416363154141,0.3508196894875492
0.635,0.6345000000000001,0.672,0.59275,0.725,0.5457500000000001,0.8847499999999999,0.8095,0.81525,0.75725,0.7434999999999999,0.65275,0.48249299719887956,0.5003267973856209,0.6584656084656084,0.4977576080900501,0.49722370531896376,0.44251235930989835,0.5650484906356277,0.35042440997009233
0.635,0.63425,0.67175,0.59225,0.72375,0.5455,0.884,0.8079999999999999,0.81475,0.75775,0.7440000000000001,0.6547499999999999,0.4828042328042328,0.500046685340803,0.6581699346405229,0.4989321943534476,0.4953550454896869,0.4441125446157238,0.5485977611259288,0.35360270668738036
0.635,0.634,0.6715000000000001,0.59175,0.7225,0.54525,0.88325,0.8065000000000001,0.8142499999999999,0.75825,0.7445,0.65675,0.4831310301898537,0.4999688764394647,0.6579365079365079,0.49994660971767235,0.49412706904834147,0.44891310053320016,0.5227476603375655,0.3509103537813964
0.635,0.6335000000000001,0.67125,0.5915,0.7215,0.545,0.8815000000000001,0.8045,0.8140000000000001,0.75875,0.7447499999999999,0.65825,0.48303765950824773,0.49989106753812634,0.657843137254902,0.500427122258621,0.4931660439664443,0.44625178039238017,0.4945496048209989,0.3469260715791616
0.635,0.63325,0.67125,0.59175,0.72175,0.545,0.8805,0.804,0.8142499999999999,0.75875,0.7445,0.6577500000000001,0.4831777155306567,0.49989106753812634,0.6579676314970433,0.5005872931056038,0.4932728244267198,0.44625178039238017,0.4945496048209989,0.3469260715791616
0.635,0.633,0.67125,0.5920000000000001,0.722,0.545,0.8795000000000001,0.8035,0.8145,0.75875,0.74425,0.6572499999999999,0.483348895113601,0.49968876439464677,0.657796451914099,0.500427122258621,0.4933796050957548,0.455869871547479,0.45813114899084284,0.34381324288654846
0.635,0.63275,0.67125,0.59225,0.72225,0.545,0.8785,0.8029999999999999,0.81475,0.75875,0.7440000000000001,0.65675,0.48361344537815126,0.4997510115157174,0.6579676314970433,0.5003203416939658,0.49402028848368623,0.4612094845425257,0.4499082701015877,0.34319901785360196
0.635,0.6325,0.67125,0.5925,0.7225,0.545,0.8775,0.8025,0.815,0.75875,0.74375,0.65625,0.48358232181761596,0.49985994397759104,0.6580765639589169,0.5001601708469828,0.4948211426664107,0.4606738233289847,0.4393386466122486,0.3459267502937749
0.635,0.6325,0.67125,0.5925,0.7225,0.545,0.8775,0.8025,0.815,0.75875,0.74375,0.65625,0.48328664799253035,0.5,0.6581388110799875,0.5005872931056038,0.4944474107423072,0.4692104110716531,0.4346402002607491,0.3474139908907025
0.635,0.6325,0.67125,0.5925,0.7225,0.545,0.8775,0.8025,0.815,0.75875,0.74375,0.65625,0.48336445689386864,0.5001089324618736,0.6583411142234672,0.501388147392708,0.493646556455203,0.4692104110716531,0.4346402002607491,0.3474139908907025
0.635,0.6325,0.67125,0.5925,0.7225,0.545,0.8775,0.8025,0.815,0.75875,0.74375,0.65625,0.4831465919701214,0.5000622471210706,0.6582477435418612,0.5024025627569327,0.49225840901030515,0.46013477285815374,0.4358129602068031,0.350572395676601
0.635,0.63225,0.67125,0.5920000000000001,0.7225,0.5447500000000001,0.87725,0.8022499999999999,0.81475,0.758,0.7440000000000001,0.6552500000000001,0.4827731092436975,0.5000622471210706,0.6582477435418612,0.5034703683512953,0.49103043246458006,0.46013477285815374,0.4358129602068031,0.350572395676601
0.635,0.632,0.67125,0.5915,0.7225,0.5445,0.877,0.802,0.8145,0.75725,0.74425,0.65425,0.4827575474634298,0.5,0.6582166199813259,0.5047517351271582,0.48969567535419967,0.4398951589745006,0.45694720629457913,0.33854864243723426
0.635,0.6317499999999999,0.67125,0.591,0.7225,0.54425,0.8767499999999999,0.80175,0.8142499999999999,0.7565000000000001,0.7445,0.65325,0.48325552443199504,0.4999221910986617,0.6583255524431995,0.5056593699267278,0.4896422851240619,0.44042741771727306,0.4616481312217444,0.33917971239851297
0.635,0.6315,0.67125,0.5905,0.7225,0.544,0.8765000000000001,0.8015000000000001,0.8140000000000001,0.75575,0.7447499999999999,0.65225,0.48327108621226267,0.500046685340803,0.6582477435418612,0.5057661503870032,0.48996262692240733,0.44042741771727306,0.4616481312217444,0.33917971239851297
0.635,0.63125,0.67125,0.59,0.7225,0.54375,0.87625,0.80125,0.81375,0.755,0.745,0.65125,0.48323996265172736,0.5002023031434796,0.6584189231248054,0.5060331017464516,0.4900694075914423,0.4388306282754768,0.4780963821557774,0.33853210194332606
0.635,0.63125,0.67125,0.59,0.7225,0.54375,0.87625,0.80125,0.81375,0.755,0.745,0.65125,0.4834267040149393,0.5004824151882975,0.6584344849050732,0.5064068337749348,0.49022957849061505,0.4388306282754768,0.4780963821557774,0.33853210194332606
0.635,0.63125,0.67125,0.59,0.7225,0.54375,0.87625,0.80125,0.81375,0.755,0.745,0.65125,0.48362900715841894,0.5007625272331154,0.6585122938064114,0.5061932726456242,0.49017618826047726,0.43296214579494746,0.48867096279644806,0.3404255019325012
0.635,0.63125,0.67125,0.59,0.7225,0.54375,0.87625,0.80125,0.81375,0.755,0.745,0.65125,0.4838935574229692,0.5009492685963274,0.6585278555866791,0.5061932726456242,0.49022957849061505,0.4297617751832965,0.5004158248075069,0.34020808789498813
0.635,0.6315,0.67125,0.59,0.72225,0.54375,0.8759999999999999,0.8015000000000001,0.8127500000000001,0.75425,0.74425,0.6505,0.4838935574229692,0.5009492685963274,0.6584033613445378,0.5058729310038483,0.4907100909793738,0.4478485764409158,0.5028184102593554,0.37343447439002503
0.635,0.6317499999999999,0.67125,0.59,0.722,0.54375,0.87575,0.80175,0.81175,0.7535,0.7434999999999999,0.6497499999999999,0.48404917522564583,0.5010582010582011,0.6582166199813259,0.505339028232762,0.4916711159568912,0.45103198094589936,0.4922487867700163,0.37574903215211586
0.635,0.632,0.67125,0.59,0.72175,0.54375,0.8755,0.802,0.8107500000000001,0.75275,0.74275,0.649,0.4838779956427015,0.5008403361344538,0.6582010582010582,0.5042178323038821,0.49263214093440866,0.46702027036825533,0.47464637978727964,0.38858656785414775
0.635,0.63225,0.67125,0.59,0.7215,0.54375,0.8752500000000001,0.8022499999999999,0.80975,0.752,0.742,0.64825,0.48403361344537815,0.5007314036725802,0.6581543728602552,0.5033635877866401,0.49391350771027154,0.49045007387821116,0.4911442459741991,0.4211572438112632
0.635,0.6325,0.67125,0.59,0.72125,0.54375,0.875,0.8025,0.80875,0.75125,0.74125,0.6475,0.48370681605975724,0.5004668534080299,0.6581699346405229,0.5028296849633639,0.494554191098203,0.4920536550480658,0.4876284884512735,0.42199091421709406
0.635,0.6325,0.67125,0.59,0.72125,0.54375,0.875,0.8025,0.80875,0.75125,0.74125,0.6475,0.4838313103018985,0.5004979769685652,0.6580454403983815,0.5029364654758293,0.4946075814327205,0.4920536550480658,0.4876284884512735,0.42199091421709406
0.635,0.6325,0.67125,0.59,0.72125,0.54375,0.875,0.8025,0.80875,0.75125,0.74125,0.6475,0.4835511982570806,0.5004201680672269,0.6580298786181139,0.5032568071176051,0.49444741063792746,0.500047796455874,0.48176473246057444,0.4242954748312835
0.635,0.63275,0.67125,0.5905,0.7215,0.54375,0.8752500000000001,0.80175,0.80825,0.7515000000000001,0.7415,0.647,0.48369125427948956,0.5006069094304388,0.6579831932773109,0.5041644419171747,0.49418045927847926,0.4952506364024269,0.5029089511704411,0.4255397355461112
0.635,0.633,0.67125,0.591,0.72175,0.54375,0.8755,0.8009999999999999,0.8077500000000001,0.7517499999999999,0.74175,0.6465000000000001,0.4834267040149393,0.5007002801120448,0.6579987550575785,0.5052322475637271,0.4937533370198583,0.49097554749966466,0.5040866536879697,0.4240647520906266
0.635,0.63325,0.67125,0.5915,0.722,0.54375,0.87575,0.80025,0.8072499999999999,0.752,0.742,0.6459999999999999,0.48361344537815126,0.5009492685963274,0.6579676314970433,0.5057661503870032,0.4940202883793065,0.48884649270835645,0.5123033507179173,0.4240485971250284
0.635,0.6335000000000001,0.67125,0.5920000000000001,0.72225,0.54375,0.8759999999999999,0.7995,0.80675,0.75225,0.74225,0.6455,0.4835667600373483,0.5008714596949891,0.6580454403983815,0.5052322476159169,0.4943406300732722,0.48511046088316445,0.49820306909194423,0.4211143039339738
0.635,0.63375,0.67125,0.5925,0.7225,0.54375,0.8767499999999999,0.79825,0.8059999999999999,0.75225,0.74175,0.644,0.4838779956427015,0.5009648303765951,0.6580921257391845,0.5035771489159506,0.49567538713146275,0.4877853578733619,0.4958563244918603,0.4200553613601451
0.635,0.63375,0.67125,0.5925,0.7225,0.54375,0.87725,0.7977500000000001,0.8057500000000001,0.752,0.741,0.643,0.4842047930283224,0.5009648303765951,0.6579209461562403,0.501548318187501,0.4966364122133599,0.4877853578733619,0.4958563244918603,0.4200553613601451
0.635,0.63375,0.67125,0.5925,0.7225,0.54375,0.87775,0.7972499999999999,0.8055,0.7517499999999999,0.7402500000000001,0.642,0.4842359165888578,0.5008714596949891,0.6578275754746343,0.4994660971767238,0.49722370531896376,0.48029972398033977,0.507603665078585,0.42278663401373046
0.635,0.63375,0.67125,0.5925,0.7225,0.54375,0.87825,0.79675,0.80525,0.7515000000000001,0.7395,0.6409999999999999,0.48401805166511047,0.5008092125739184,0.6576875194522254,0.49749065673060183,0.4973838761659466,0.48029972398033977,0.507603665078585,0.42278663401373046
0.635,0.63375,0.67125,0.5925,0.7225,0.54375,0.87875,0.79625,0.805,0.75125,0.73875,0.64,0.4839246809835045,0.5009025832555244,0.657796451914099,0.49642285108404943,0.4979177789892228,0.48509689064052636,0.5193609199679728,0.42699027783614796
0.63475,0.63375,0.6709999999999999,0.5925,0.72225,0.54375,0.87875,0.7957500000000001,0.8045,0.7515000000000001,0.73875,0.63975,0.48401805166511047,0.5007625272331154,0.6579520697167756,0.4963694608017218,0.4975440470129295,0.48509689064052636,0.5193609199679728,0.42699027783614796
0.6345000000000001,0.63375,0.6707500000000001,0.5925,0.722,0.54375,0.87875,0.79525,0.804,0.7517499999999999,0.73875,0.6395000000000001,0.4838157485216309,0.5006224712107065,0.6579676314970433,0.4970635344719809,0.497330485883619,0.4840187830921251,0.528756558803282,0.42825268762852237
0.63425,0.63375,0.6705,0.5925,0.72175,0.54375,0.87875,0.79475,0.8035,0.752,0.73875,0.63925,0.4839713663243075,0.5006535947712418,0.6579987550575785,0.4980779498362057,0.49727709560129135,0.4840187830921251,0.528756558803282,0.42825268762852237
0.634,0.63375,0.67025,0.5925,0.7215,0.54375,0.87875,0.79425,0.8029999999999999,0.75225,0.73875,0.639,0.48390911920323687,0.5006847183317772,0.6582321817615935,0.4994660971767238,0.49695675385513577,0.4888159497523117,0.5452221743468323,0.43602892525319825
0.63375,0.63375,0.67,0.5925,0.72125,0.54375,0.87875,0.79375,0.8025,0.7525,0.73875,0.63875,0.4837690631808279,0.5006069094304388,0.6583722377840024,0.5007474639525867,0.4962626801326868,0.4888159497523117,0.5452221743468323,0.43602892525319825
0.63375,0.63375,0.67,0.5925,0.72125,0.54375,0.87875,0.79375,0.8025,0.7525,0.73875,0.63875,0.4835511982570806,0.5007158418923124,0.6583099906629318,0.5021890015754324,0.4954084356154449,0.4914704847718126,0.5534463071037772,0.437913214809585
0.63375,0.63375,0.67,0.5925,0.72125,0.54375,0.87875,0.79375,0.8025,0.7525,0.73875,0.63875,0.4834578275754746,0.5008092125739184,0.6585278555866791,0.503096636375002,0.4946609716628582,0.4968067019028301,0.5534537428307745,0.4416992663312508
0.63375,0.63375,0.67,0.5925,0.72125,0.54375,0.87875,0.79375,0.8025,0.7525,0.73875,0.63875,0.48328664799253035,0.5009337068160598,0.6586056644880174,0.5037373197629335,0.49444741053354774,0.5095946141067957,0.5558302449187048,0.45812230837511103
0.63375,0.63375,0.67,0.5925,0.72125,0.54375,0.87875,0.79375,0.8025,0.7525,0.73875,0.63875,0.4832244008714597,0.5009959539371304,0.6583255524431995,0.5035771489159506,0.49428723973875477,0.5079876436796512,0.553479797034979,0.4587527681381334
0.63375,0.6335000000000001,0.67,0.59225,0.72125,0.54375,0.8785,0.7929999999999999,0.8022499999999999,0.7517499999999999,0.7390000000000001,0.63875,0.48323996265172736,0.5009648303765951,0.6581699346405229,0.5036305391982782,0.49428723973875477,0.5079876436796512,0.553479797034979,0.4587527681381334
0.63375,0.63325,0.67,0.5920000000000001,0.72125,0.54375,0.87825,0.7922499999999999,0.802,0.7509999999999999,0.73925,0.63875,0.4831777155306567,0.5008870214752568,0.6579831932773109,0.5032568072219848,0.4946075814327205,0.518110846485507,0.5041573514138723,0.4699183287123356
0.63375,0.633,0.67,0.59175,0.72125,0.54375,0.878,0.7915000000000001,0.80175,0.7502500000000001,0.7395,0.63875,0.48336445689386864,0.5008870214752568,0.6578586990351696,0.5028296849633639,0.49508809397366904,0.5165072653156523,0.5053363077990906,0.4705561906189106
0.63375,0.63275,0.67,0.5915,0.72125,0.54375,0.87775,0.7907500000000001,0.8015000000000001,0.7495,0.7397499999999999,0.63875,0.483348895113601,0.5007625272331154,0.6579520697167756,0.5024559529870706,0.49556860651461765,0.5165072653156523,0.5053363077990906,0.4705561906189106
0.63375,0.6325,0.67,0.59125,0.72125,0.54375,0.8775,0.79,0.80125,0.74875,0.74,0.63875,0.4838001867413632,0.5007780890133832,0.6579676314970433,0.5020822210107772,0.4965296315965148,0.5180904779080711,0.5065226999113064,0.47919268282050576
0.63375,0.6325,0.66975,0.591,0.721,0.5435,0.87725,0.79025,0.8009999999999999,0.7484999999999999,0.7397499999999999,0.6385000000000001,0.48398692810457516,0.5007936507936508,0.6579053843759726,0.5010144153642248,0.4971169247543085,0.5180904779080711,0.5065226999113064,0.47919268282050576
0.63375,0.6325,0.6695,0.59075,0.72075,0.54325,0.877,0.7905,0.8007500000000001,0.7482500000000001,0.7395,0.63825,0.4839402427637722,0.5005913476501712,0.6580143168378463,0.5005339028232763,0.49727709560129135,0.5186295349856413,0.5100483863167519,0.4819276645223152
0.63375,0.6325,0.66925,0.5905,0.7204999999999999,0.5429999999999999,0.8767499999999999,0.7907500000000001,0.8005,0.748,0.73925,0.638,0.4838313103018985,0.5005291005291005,0.6580298786181139,0.5001601708469828,0.497170315088826,0.5186295349856413,0.5100483863167519,0.4819276645223152
0.63375,0.6325,0.669,0.5902499999999999,0.7202500000000001,0.54275,0.8765000000000001,0.7909999999999999,0.80025,0.74775,0.7390000000000001,0.63775,0.48390911920323687,0.5004046062869593,0.6579209461562403,0.5002135611293105,0.4965296317530844,0.5202263244274375,0.5241499072305579,0.4842363183836307
0.63375,0.6325,0.66875,0.59,0.72,0.5425,0.87625,0.79125,0.8,0.7475,0.73875,0.6375,0.48364456893868657,0.5002956738250856,0.6580298786181139,0.5012813667236731,0.49610250949446344,0.5202263244274375,0.5241499072305579,0.4842363183836307
0.63375,0.6325,0.66875,0.59,0.72,0.5425,0.87625,0.79125,0.8,0.7475,0.73875,0.6375,0.4839402427637722,0.5003579209461563,0.6579365079365079,0.5023491723702255,0.4960491192121358,0.518083692786752,0.5217994447669753,0.48570479039889974
0.63375,0.6325,0.66875,0.59,0.72,0.5425,0.87625,0.79125,0.8,0.7475,0.73875,0.6375,0.48411142234671645,0.5005291005291005,0.6578898225957049,0.5026161237818635,0.49668980260006723,0.5218163287479148,0.5311975621779501,0.4842263265533611
0.63375,0.63225,0.66875,0.58975,0.72,0.542,0.8752500000000001,0.79125,0.8015000000000001,0.7475,0.73875,0.6375,0.4838468720821662,0.5006847183317772,0.6580143168378463,0.5029364654758293,0.49733048593580886,0.5218163287479148,0.5311975621779501,0.4842263265533611
0.63375,0.632,0.66875,0.5895,0.72,0.5415,0.87425,0.79125,0.8029999999999999,0.7475,0.73875,0.6375,0.48361344537815126,0.5009181450357921,0.6580921257391845,0.5027762946288464,0.4981847304008609,0.5202127475780601,0.5370724717591453,0.48633498029210515
0.63375,0.6317499999999999,0.66875,0.5892499999999999,0.72,0.541,0.8732500000000001,0.79125,0.8045,0.7475,0.73875,0.6375,0.48366013071895425,0.5010582010582011,0.6580298786181139,0.5017084890344838,0.49882541378879236,0.5202127475780601,0.5370724717591453,0.48633498029210515
0.63375,0.6315,0.66875,0.589,0.72,0.5405,0.87225,0.79125,0.8059999999999999,0.7475,0.73875,0.6375,0.48323996265172736,0.5011048863990041,0.6583566760037348,0.5012279764935352,0.4994660971767238,0.5212704931557649,0.5547009183662296,0.4869615741367638
0.63375,0.63125,0.66875,0.58875,0.72,0.54,0.87125,0.79125,0.8075,0.7475,0.73875,0.6375,0.48333333333333334,0.5011515717398071,0.6581543728602552,0.5010144153642248,0.49935931661206856,0.5169988001170317,0.5605708562162364,0.48949176984732534
0.63375,0.63125,0.66875,0.58875,0.72,0.54,0.87125,0.79125,0.8075,0.7475,0.73875,0.6375,0.48353563647681297,0.5009337068160598,0.6579520697167756,0.5004805125409486,0.49941270689439615,0.5250166993595659,0.5535219619810111,0.48971225880546293
0.63375,0.63125,0.66875,0.58875,0.72,0.54,0.87125,0.79125,0.8075,0.7475,0.73875,0.6375,0.4835667600373483,0.5009025832555244,0.6579365079365079,0.5002135611293105,0.4987186332241371,0.5431340501799693,0.4818726525610343,0.49416671139348983
0.63375,0.63125,0.66875,0.58875,0.72,0.54,0.87125,0.79125,0.8075,0.7475,0.73875,0.6375,0.4834733893557423,0.5007780890133832,0.6582010582010582,0.5005872931056038,0.49829151096551616,0.5447308396217655,0.4689513273202797,0.4956441648889745
0.6335000000000001,0.63125,0.669,0.5885,0.7197499999999999,0.54,0.8715,0.79175,0.8075,0.7475,0.7384999999999999,0.6375,0.48406473700591346,0.5007002801120448,0.6579209461562403,0.5003737319762933,0.49829151096551616,0.5441850040296154,0.4689575237594442,0.4973298315894423
0.63325,0.63125,0.66925,0.58825,0.7195,0.54,0.87175,0.7922499999999999,0.8075,0.7475,0.7382500000000001,0.6375,0.48358232181761596,0.5008403361344538,0.6584033613445378,0.5001067805646553,0.4989855846357752,0.5489889558111211,0.46660706129586155,0.5038518804806031
0.633,0.63125,0.6695,0.588,0.71925,0.54,0.872,0.7927500000000001,0.8075,0.7475,0.738,0.6375,0.48370681605975724,0.5012293806411453,0.6586990351696234,0.5006406833879314,0.4993059263297409,0.5489889558111211,0.46660706129586155,0.5038518804806031
0.63275,0.63125,0.66975,0.58775,0.7190000000000001,0.54,0.87225,0.79325,0.8075,0.7475,0.73775,0.6375,0.48411142234671645,0.5011204481792717,0.6586056644880174,0.5008542445172419,0.500427122258621,0.5441510652095415,0.4865847310786956,0.5065790160165994
0.6325,0.63125,0.67,0.5875,0.71875,0.54,0.8725,0.79375,0.8075,0.7475,0.7375,0.6375,0.48400248988484285,0.5012138188608777,0.6583566760037348,0.5012279764935352,0.5012813667758629,0.5425508732969766,0.5006788016856473,0.5084733439325346
0.6325,0.63125,0.67,0.5875,0.71875,0.54,0.8725,0.79375,0.8075,0.7475,0.7375,0.6375,0.48336445689386864,0.5011826953003423,0.6582788671023965,0.501975440446122,0.501548318187501,0.5441544544668313,0.5183022911414,0.5091026723693783
0.6325,0.63125,0.67,0.5875,0.71875,0.54,0.8725,0.79375,0.8075,0.7475,0.7375,0.6375,0.48366013071895425,0.5010582010582011,0.6578586990351696,0.5031500266573297,0.5013347570581905,0.5420084335688559,0.5218242596833469,0.5095261938296569
0.6325,0.63125,0.67,0.5875,0.71875,0.54,0.8725,0.79375,0.8075,0.7475,0.7375,0.6375,0.4831154684095861,0.5010893246187363,0.6577653283535636,0.5034703683512953,0.5013347570581905,0.5446731429669657,0.5276941975333537,0.5078525596006859
0.6325,0.631,0.67,0.5875,0.71875,0.54,0.87225,0.794,0.8075,0.7482500000000001,0.738,0.639,0.48286647992530346,0.5012293806411453,0.6579053843759726,0.5038441003275886,0.5013881473405182,0.5446731429669657,0.5276941975333537,0.5078525596006859
0.6325,0.63075,0.67,0.5875,0.71875,0.54,0.872,0.79425,0.8075,0.7490000000000001,0.7384999999999999,0.6405,0.4831932773109244,0.5009181450357921,0.6579987550575785,0.5040042711745716,0.5009610250818972,0.5484091747921577,0.5182948408345458,0.5070169708591606
0.6325,0.6305,0.67,0.5875,0.71875,0.54,0.87175,0.7945,0.8075,0.7497499999999999,0.7390000000000001,0.642,0.48333333333333334,0.5011360099595393,0.6580298786181139,0.5049652963086586,0.5007474639525867,0.5468157746076513,0.5135827623168845,0.49735105026998155
0.6325,0.63025,0.67,0.5875,0.71875,0.54,0.8715,0.79475,0.8075,0.7505,0.7395,0.6435,0.4834733893557423,0.5013694366635543,0.6580610021786493,0.5056593700311075,0.5007474639525867,0.544683323952314,0.5088744016627219,0.4921002916164054
0.6325,0.63,0.67,0.5875,0.71875,0.54,0.87125,0.795,0.8075,0.75125,0.74,0.645,0.48390911920323687,0.5013227513227513,0.6577808901338313,0.5064602242660218,0.5006940736702591,0.544683323952314,0.5088744016627219,0.4921002916164054
0.6325,0.63,0.67,0.5875,0.71875,0.54,0.87125,0.795,0.8075,0.75125,0.74,0.645,0.48361344537815126,0.501525054466231,0.657609710550887,0.5069941271414878,0.5003203416939658,0.5441510652095415,0.5182663080546754,0.4902142219827527
0.6325,0.63,0.67,0.5875,0.71875,0.54,0.87125,0.795,0.8075,0.75125,0.74,0.645,0.48341114223467163,0.5018051665110489,0.6574385309679427,0.5071009077061431,0.4996796583060343,0.5318784390349417,0.5100211074045713,0.47950068404620405
0.6325,0.63,0.67,0.5875,0.71875,0.54,0.87125,0.795,0.8075,0.75125,0.74,0.645,0.4828509181450358,0.5018051665110489,0.6577186430127606,0.5063000534190389,0.4987186332241371,0.529762961093011,0.5229399394898033,0.47866592751406517
0.6325,0.62975,0.66975,0.58725,0.71825,0.5397500000000001,0.87125,0.7955,0.80825,0.752,0.74075,0.64625,0.4832244008714597,0.5014628073451602,0.6576875194522254,0.5053390282849519,0.49797116927155044,0.529762961093011,0.5229399394898033,0.47866592751406517
0.6325,0.6295000000000001,0.6695,0.5870000000000001,0.7177500000000001,0.5395,0.87125,0.7959999999999999,0.809,0.75275,0.7415,0.6475,0.48327108621226267,0.5011360099595393,0.6575785869903517,0.5048585157961932,0.49749065673060183,0.5036243217727836,0.5440407393859481,0.45322486115892524
0.6325,0.62925,0.66925,0.58675,0.7172499999999999,0.53925,0.87125,0.7965000000000001,0.80975,0.7535,0.74225,0.64875,0.48341114223467163,0.5014005602240896,0.6575319016495487,0.5035771489681404,0.4970635344719809,0.5036446837434803,0.5522561825482059,0.4458632299847105
0.6325,0.629,0.669,0.5865,0.71675,0.539,0.87125,0.797,0.8105,0.75425,0.743,0.65,0.4834578275754746,0.501478369125428,0.65765639589169,0.5007474640569665,0.4975974372952571,0.5036446837434803,0.5522561825482059,0.4458632299847105
0.6325,0.62875,0.66875,0.58625,0.71625,0.53875,0.87125,0.7975,0.81125,0.755,0.74375,0.65125,0.48390911920323687,0.5011204481792717,0.6576719576719576,0.49909236530481016,0.4987186332241371,0.49352826605894357,0.5675031699160283,0.4317755682199064
0.6325,0.62875,0.66875,0.58625,0.71625,0.53875,0.87125,0.7975,0.81125,0.755,0.74375,0.65125,0.48341114223467163,0.501384998443822,0.6579053843759726,0.4975440471173092,0.5002135611293105,0.4919314766171472,0.5580988414860321,0.4296961361976546
0.6325,0.62875,0.66875,0.58625,0.71625,0.53875,0.87125,0.7975,0.81125,0.755,0.74375,0.65125,0.483442265795207,0.5015561780267662,0.6579365079365079,0.4958889483129631,0.5018152695991391,0.489805811083129,0.5663093274969583,0.42339930895698885
0.6325,0.62875,0.66875,0.58625,0.71625,0.53875,0.87125,0.7975,0.81125,0.755,0.74375,0.65125,0.4834733893557423,0.5011515717398071,0.6580143168378463,0.4948745329487383,0.5025627335517258,0.4914195732383319,0.5745235313713832,0.4181374111940689
0.632,0.628,0.6685,0.58575,0.71575,0.53825,0.87275,0.7965000000000001,0.8105,0.754,0.7432500000000001,0.6517499999999999,0.483348895113601,0.5009959539371304,0.6579987550575785,0.49444741069011733,0.5028296849633639,0.4807369579909487,0.5839166916310266,0.4154028402793208
0.6315,0.62725,0.66825,0.5852499999999999,0.71525,0.53775,0.87425,0.7955,0.80975,0.753,0.74275,0.65225,0.48331777155306566,0.5007936507936508,0.6577186430127606,0.4937533370198583,0.5023491724224153,0.4775365873792977,0.5933011622959826,0.4095336676282987
0.631,0.6265,0.6679999999999999,0.58475,0.71475,0.53725,0.87575,0.7945,0.809,0.752,0.74225,0.65275,0.48294428882664175,0.5009803921568627,0.6577342047930284,0.4934329953258925,0.5008008542349143,0.4775365873792977,0.5933011622959826,0.4095336676282987
0.6305,0.62575,0.6677500000000001,0.5842499999999999,0.7142499999999999,0.53675,0.87725,0.7935,0.80825,0.7509999999999999,0.74175,0.65325,0.4826797385620915,0.5010582010582011,0.6581854964207905,0.49252536057851287,0.4991991457650857,0.4828965623450409,0.5886002373688176,0.4082693248767423
0.63,0.625,0.6675,0.58375,0.71375,0.53625,0.87875,0.7925,0.8075,0.75,0.74125,0.65375,0.48289760348583877,0.5010270774976657,0.6581854964207905,0.4917245062914087,0.49909236520043043,0.494077504121862,0.5874250134269546,0.4072333943547985
0.63,0.625,0.6675,0.58375,0.71375,0.53625,0.87875,0.7925,0.8075,0.75,0.74125,0.65375,0.4827264239028945,0.501291627762216,0.6582944288826642,0.491884676981822,0.49909236520043043,0.4924637419666591,0.5756826445714184,0.40787038948737997
0.63,0.625,0.6675,0.58375,0.71375,0.53625,0.87875,0.7925,0.8075,0.75,0.74125,0.65375,0.48286647992530346,0.5016651104886399,0.6582321817615935,0.4907634811051318,0.49941270689439615,0.4924637419666591,0.5756826445714184,0.40787038948737997
0.63,0.625,0.6675,0.58375,0.71375,0.53625,0.87875,0.7925,0.8075,0.75,0.74125,0.65375,0.4830532212885154,0.5014939309056956,0.6580143168378463,0.48958889489392415,0.49962626802370663,0.489259975490979,0.5897705041593487,0.4066178266198069
0.62975,0.6245,0.667,0.58325,0.71325,0.5355,0.87775,0.7927500000000001,0.8072499999999999,0.75,0.74175,0.654,0.4830065359477124,0.5014472455648926,0.6576719576719576,0.48878804060681996,0.4996796583060343,0.4902600178071446,0.6109432410692289,0.43019765801149984
0.6295000000000001,0.624,0.6665000000000001,0.58275,0.7127500000000001,0.5347500000000001,0.8767499999999999,0.7929999999999999,0.807,0.75,0.74225,0.65425,0.48261749144102084,0.5017273576097105,0.6577653283535636,0.4871329420112333,0.4987720235064647,0.5094724356758772,0.5439985744399158,0.4428926439561945
0.62925,0.6235,0.6659999999999999,0.58225,0.7122499999999999,0.534,0.87575,0.79325,0.80675,0.75,0.74275,0.6545000000000001,0.48257080610021785,0.5015094926859632,0.6576719576719576,0.48547784320688725,0.49775760814223996,0.5019935869041741,0.5439985744399158,0.4449956423934528
0.629,0.623,0.6655,0.58175,0.71175,0.53325,0.8747499999999999,0.7935,0.8065000000000001,0.75,0.7432500000000001,0.6547499999999999,0.48216619981325864,0.501478369125428,0.6577653283535636,0.48398291509295444,0.49572877751817007,0.5019935869041741,0.5439985744399158,0.4449956423934528
0.6285000000000001,0.62225,0.66475,0.58075,0.71075,0.53225,0.8734999999999999,0.79375,0.80525,0.74875,0.7432500000000001,0.654,0.4823529411764706,0.5011048863990041,0.657796451914099,0.4810998399516426,0.49407367866163415,0.5179784804625007,0.5240432409977878,0.45638614012484535
0.62825,0.622,0.6645,0.5802499999999999,0.71025,0.532,0.8732500000000001,0.79375,0.80425,0.7475,0.74275,0.653,0.4827108621226268,0.5004824151882975,0.6579987550575785,0.47923118001798604,0.49359316612068554,0.5179784804625007,0.5240432409977878,0.45638614012484535
0.628,0.62175,0.66425,0.57975,0.70975,0.53175,0.873,0.79375,0.80325,0.74625,0.74225,0.652,0.48316215375038907,0.4995798319327731,0.6579676314970433,0.4785371061911574,0.49359316612068554,0.5270439442973912,0.5381497190629251,0.4626991595545324
0.62775,0.6214999999999999,0.664,0.5792499999999999,0.7092499999999999,0.5315,0.87275,0.79375,0.8022499999999999,0.745,0.74175,0.6509999999999999,0.48348895113601,0.49909741674447555,0.6580765639589169,0.4795515218163315,0.49412706894396174,0.5345024310983978,0.5322810059208944,0.4696632565353805
0.6275,0.62125,0.66375,0.57875,0.70875,0.53125,0.8725,0.79375,0.80125,0.74375,0.74125,0.65,0.48366013071895425,0.49897292250233427,0.6582788671023965,0.48126001105957483,0.4957287773094106,0.5345024310983978,0.5322810059208944,0.4696632565353805
0.6275,0.62125,0.66375,0.57875,0.70875,0.53125,0.8725,0.79375,0.80125,0.74375,0.74125,0.65,0.4835045129162776,0.498848428260193,0.6587145969498911,0.48424986686992155,0.4978643887068952,0.5323801614284087,0.5299255863059803,0.46651505229680224
0.6275,0.62125,0.66425,0.57875,0.70875,0.5305,0.872,0.7925,0.802,0.74375,0.7415,0.65,0.4831777155306567,0.49897292250233427,0.6589791472144413,0.4862253074726131,0.49882541378879236,0.5397062888131485,0.46062176761839746,0.497858323102686
0.6275,0.62125,0.66475,0.57875,0.70875,0.52975,0.8715,0.79125,0.8027500000000001,0.74375,0.74175,0.65,0.48289760348583877,0.4989262371615313,0.6588390911920323,0.48889482169337384,0.5001067805646553,0.5397062888131485,0.46062176761839746,0.497858323102686
0.6275,0.62125,0.66525,0.57875,0.70875,0.529,0.871,0.79,0.8035,0.74375,0.742,0.65,0.4827419856831622,0.49894179894179896,0.6585589791472144,0.49038974949416747,0.5008008542349143,0.5354312065171255,0.45709608121295203,0.5022674973848119
0.6275,0.62125,0.6657500000000001,0.57875,0.70875,0.52825,0.8704999999999999,0.78875,0.80425,0.74375,0.74225,0.65,0.4828197945845005,0.4988639900404606,0.6584189231248054,0.4914575551407199,0.5012279764935352,0.5263419848475094,0.467666943990124,0.5058334321825704
0.6275,0.62125,0.66625,0.57875,0.70875,0.5275,0.87,0.7875,0.805,0.74375,0.7425,0.65,0.4827108621226268,0.49866168689698104,0.6580454403983815,0.49151094537085765,0.49925253599522346,0.5049835394740619,0.48059074780654437,0.5106267043317544
0.6275,0.62125,0.66625,0.57875,0.70875,0.5275,0.87,0.7875,0.805,0.74375,0.7425,0.65,0.4826019296607532,0.4984593837535014,0.6576719576719576,0.49156433560099544,0.4972770954969116,0.49697582121687606,0.49702908443791427,0.5072496930293978
0.6275,0.62125,0.6659999999999999,0.579,0.7084999999999999,0.527,0.87075,0.7872499999999999,0.805,0.7432500000000001,0.743,0.6502500000000001,0.48252412075941487,0.49872393401805165,0.657516339869281,0.49049652995444304,0.4947677521753236,0.4879069681246958,0.5005498136920281,0.507241102395124
0.6275,0.62125,0.6657500000000001,0.5792499999999999,0.70825,0.5265,0.8715,0.787,0.805,0.74275,0.7434999999999999,0.6505,0.48213507625272334,0.4983815748521631,0.6573140367258015,0.48937533397337313,0.4913507741585458,0.4580458672219146,0.5310871780816814,0.512243556887698
0.6275,0.62125,0.6655,0.5795,0.708,0.526,0.87225,0.78675,0.805,0.74225,0.7440000000000001,0.65075,0.4823529411764706,0.4980859010270775,0.6578742608154373,0.4888948214846144,0.4879871863197158,0.4532453113044382,0.5275589985207132,0.5113965312494444
0.6275,0.62125,0.66525,0.57975,0.7077500000000001,0.5255,0.873,0.7865000000000001,0.805,0.74175,0.7445,0.6509999999999999,0.4830532212885154,0.4981014628073452,0.6582010582010582,0.4892151630742004,0.488360918348199,0.4532453113044382,0.5275589985207132,0.5113965312494444
0.6275,0.62125,0.665,0.58,0.7075,0.525,0.87375,0.78625,0.805,0.74125,0.745,0.65125,0.4831777155306567,0.49802365390600684,0.6581699346405229,0.4898558464621318,0.4891617726353032,0.4575068167510837,0.49937457517030853,0.5206806432120823
0.6275,0.62125,0.665,0.58,0.7075,0.525,0.87375,0.78625,0.805,0.74125,0.745,0.65125,0.48336445689386864,0.49789915966386555,0.6584344849050732,0.4915109451620982,0.49044313946335594,0.4575068167510837,0.49937457517030853,0.5206806432120823
0.6275,0.62125,0.665,0.58,0.7075,0.525,0.87375,0.78625,0.805,0.74125,0.745,0.65125,0.48408029878618114,0.49831932773109244,0.6588857765328353,0.4924719703483751,0.49300587296289183,0.46444661505195584,0.49702908443791427,0.520256494271244
0.62775,0.62125,0.66475,0.5805,0.7075,0.525,0.87375,0.7865000000000001,0.805,0.74075,0.7445,0.65075,0.4835978835978836,0.49839713663243074,0.6582477435418612,0.4931126536319268,0.49551521628447986,0.46603661937243307,0.47117526578605207,0.5179646653971414
0.628,0.62125,0.6645,0.581,0.7075,0.525,0.87375,0.78675,0.805,0.7402500000000001,0.7440000000000001,0.6502500000000001,0.48286647992530346,0.4985060690943044,0.6578586990351696,0.49380672735437575,0.4963694608017218,0.4809977127798684,0.4218193448136001,0.5072718848365678
0.62825,0.62125,0.66425,0.5815,0.7075,0.525,0.87375,0.787,0.805,0.7397499999999999,0.7434999999999999,0.6497499999999999,0.48283535636476815,0.4988639900404606,0.6576719576719576,0.4942338496129967,0.4966898024956875,0.4825978980856939,0.40302436385934015,0.5098049307978079
0.6285000000000001,0.62125,0.664,0.5820000000000001,0.7075,0.525,0.87375,0.7872499999999999,0.805,0.73925,0.743,0.64925,0.4827419856831622,0.49873949579831933,0.6575785869903517,0.4939668981491688,0.4962626801848767,0.4825978980856939,0.40302436385934015,0.5098049307978079
0.62875,0.62125,0.66375,0.5825,0.7075,0.525,0.87375,0.7875,0.805,0.73875,0.7425,0.64875,0.4828197945845005,0.4985216308745721,0.657469654528478,0.4940202883793065,0.49556860651461765,0.4500211762513222,0.40770914888496396,0.5133385277468028
0.62875,0.62125,0.66375,0.5825,0.7075,0.525,0.87375,0.7875,0.805,0.73875,0.7425,0.64875,0.4831777155306567,0.49856831621537506,0.6576252723311546,0.49375333691547857,0.49540843566763476,0.443074592829131,0.42533139905288375,0.5147984370453652
0.62875,0.62125,0.66375,0.5825,0.7075,0.525,0.87375,0.7875,0.805,0.73875,0.7425,0.64875,0.483442265795207,0.4985838779956427,0.6579053843759726,0.49369994658096106,0.49556860651461765,0.43879951053310795,0.4570601127060843,0.5212969514273108
0.62875,0.62125,0.66375,0.5825,0.7075,0.525,0.87375,0.7875,0.805,0.73875,0.7425,0.64875,0.4835045129162776,0.4983815748521631,0.6581388110799875,0.4935397756817883,0.4958355579262557,0.43879951053310795,0.4570601127060843,0.5212969514273108
0.62875,0.621,0.664,0.58225,0.7072499999999999,0.52475,0.8740000000000001,0.7872499999999999,0.80525,0.73875,0.74275,0.6485,0.4835978835978836,0.49831932773109244,0.6581388110799875,0.4932194340922023,0.4965296316487047,0.4275778448148938,0.5251874535841146,0.5242058422909585
0.62875,0.62075,0.66425,0.5820000000000001,0.7070000000000001,0.5245000000000001,0.87425,0.787,0.8055,0.73875,0.743,0.64825,0.4831154684095861,0.4984282601929661,0.6581076875194523,0.49284570206371914,0.49690336362499804,0.4275778448148938,0.5251874535841146,0.5242058422909585
0.62875,0.6204999999999999,0.6645,0.58175,0.70675,0.52425,0.8745,0.78675,0.8057500000000001,0.73875,0.7432500000000001,0.648,0.48294428882664175,0.4982103952692188,0.6579520697167756,0.49263214093440866,0.4971169247543085,0.42706594143607846,0.5040432494541047,0.5189367152075214
0.62875,0.62025,0.66475,0.5815,0.7065,0.524,0.8747499999999999,0.7865000000000001,0.8059999999999999,0.73875,0.7434999999999999,0.64775,0.4826330532212885,0.49794584500466854,0.6576719576719576,0.4920448479853744,0.49695675390732563,0.4260048066010839,0.5157769432948106,0.5124198044781476
0.62875,0.62,0.665,0.58125,0.70625,0.52375,0.875,0.78625,0.80625,0.73875,0.74375,0.6475,0.4823840647370059,0.4979614067849362,0.6575785869903517,0.49140416459744296,0.4961558996724113,0.4238757518097758,0.5275242693016784,0.5120015793792041
0.62875,0.62,0.665,0.58125,0.70625,0.52375,0.875,0.78625,0.80625,0.73875,0.74375,0.6475,0.4822906940553999,0.49785247432306257,0.6575474634298164,0.4910838227990975,0.49524826482065193,0.42282140209610036,0.5498412333777419,0.5126258893009777
0.629,0.62,0.66475,0.58125,0.706,0.52325,0.87625,0.7855,0.8075,0.7397499999999999,0.74375,0.648,0.48250855897914724,0.49755680049797696,0.6575474634298164,0.49065670054047655,0.4946609717150481,0.4196210314844494,0.5416208330641527,0.5069422780726125
0.62925,0.62,0.6645,0.58125,0.70575,0.5227499999999999,0.8775,0.78475,0.80875,0.74075,0.74375,0.6485,0.4826797385620915,0.49755680049797696,0.657516339869281,0.49054992008020104,0.49391350781465126,0.4206414423780509,0.568637468199692,0.5208348345949744
0.6295000000000001,0.62,0.66425,0.58125,0.7055,0.52225,0.87875,0.784,0.81,0.74175,0.74375,0.649,0.48292872704637413,0.49765017117958293,0.6575474634298164,0.4908168714396493,0.49337960499137506,0.4206414423780509,0.568637468199692,0.5208348345949744
0.62975,0.62,0.664,0.58125,0.70525,0.5217499999999999,0.88,0.78325,0.81125,0.74275,0.74375,0.6495000000000001,0.4831932773109244,0.49752567693744165,0.6575941487706194,0.4911906034681325,0.4934863855560303,0.4206414423780509,0.568637468199692,0.5208348345949744
0.63,0.62,0.66375,0.58125,0.705,0.52125,0.88125,0.7825,0.8125,0.74375,0.74375,0.65,0.4831932773109244,0.4976190476190476,0.657796451914099,0.49161772572675344,0.4934863855560303,0.4190276802228479,0.5404307085085814,0.5157957868187388
0.63,0.62,0.66375,0.58125,0.705,0.52125,0.88125,0.7825,0.8125,0.74375,0.74375,0.65,0.48294428882664175,0.4977279800809213,0.6578586990351696,0.4922584091146849,0.49359316612068554,0.4142033598639064,0.5322028724679947,0.5206347866137163
0.62975,0.61975,0.66375,0.581,0.705,0.52125,0.88125,0.78325,0.813,0.7440000000000001,0.74375,0.65,0.4826953003423592,0.4976657329598506,0.6580143168378463,0.4925787507042709,0.49364655635082333,0.4035139594952041,0.5145731865730774,0.5191756536894058
0.6295000000000001,0.6195,0.66375,0.58075,0.705,0.52125,0.88125,0.784,0.8134999999999999,0.74425,0.74375,0.65,0.4824307500778089,0.49747899159663866,0.6581076875194523,0.4925253603697534,0.4932194340922023,0.4072567764417152,0.5016444110254686,0.5147633579573765
0.62925,0.61925,0.66375,0.5805,0.705,0.52125,0.88125,0.78475,0.8140000000000001,0.7445,0.74375,0.65,0.4823529411764706,0.4972922502334267,0.6581543728602552,0.49263214083002893,0.49231179924044294,0.4072567764417152,0.5016444110254686,0.5147633579573765
0.629,0.619,0.66375,0.5802499999999999,0.705,0.52125,0.88125,0.7855,0.8145,0.7447499999999999,0.74375,0.65,0.4823996265172736,0.4970276999688764,0.6579053843759726,0.4925253603697534,0.491884676981822,0.4013984749465341,0.49458436319974736,0.5118098162683877
0.62875,0.61875,0.66375,0.58,0.705,0.52125,0.88125,0.78625,0.815,0.745,0.74375,0.65,0.4827108621226268,0.4968720821661998,0.6578898225957049,0.49284570216809886,0.4916711158525115,0.4013984749465341,0.49458436319974736,0.5118098162683877
0.62875,0.61875,0.66375,0.58,0.705,0.52125,0.88125,0.78625,0.815,0.745,0.74375,0.65,0.48278867102396517,0.49676314970432617,0.6578120136943666,0.4931660439664443,0.4918312867516842,0.3875188783447897,0.5075031952849793,0.5128454822381463
0.62875,0.61875,0.664,0.58,0.705,0.52125,0.883,0.787,0.81525,0.7445,0.7432500000000001,0.64925,0.48303765950824773,0.49688764394646745,0.6579365079365079,0.493913507919031,0.49225840901030515,0.37896192863142475,0.5157236101784256,0.516199453571051
0.62875,0.61875,0.66425,0.58,0.705,0.52125,0.8847499999999999,0.7877500000000001,0.8155,0.7440000000000001,0.74275,0.6485,0.4830999066293184,0.4970121381886088,0.6581076875194523,0.4945008010768247,0.4931660438620646,0.3805655098012795,0.5098499398850633,0.5189400573391469
0.62875,0.61875,0.6645,0.58,0.705,0.52125,0.8865000000000001,0.7885,0.81575,0.7434999999999999,0.74225,0.64775,0.4832244008714597,0.4969498910675381,0.6583411142234672,0.4955152163888596,0.49386011758451354,0.3848371962332732,0.5028035242255038,0.5185108978596863
0.62875,0.61875,0.66475,0.58,0.705,0.52125,0.88825,0.78925,0.816,0.743,0.74175,0.647,0.4831465919701214,0.49688764394646745,0.6583566760037348,0.496743192830205,0.49439402040778974,0.38269116872855835,0.5016307788593067,0.5218625081640438
0.62875,0.61875,0.665,0.58,0.705,0.52125,0.89,0.79,0.81625,0.7425,0.74125,0.64625,0.4830065359477124,0.4969965764083411,0.6585278555866791,0.4989321943534476,0.4947143620495656,0.38269116872855835,0.5016307788593067,0.5218625081640438
0.62875,0.61875,0.665,0.58,0.705,0.52125,0.89,0.79,0.81625,0.7425,0.74125,0.64625,0.48323996265172736,0.4967942732648615,0.6584344849050732,0.5010678056465524,0.49498131351339353,0.38482023012660593,0.5063403788013022,0.5229103315696481
0.62875,0.61875,0.665,0.58,0.705,0.52125,0.89,0.79,0.81625,0.7425,0.74125,0.64625,0.48320883909119206,0.4967164643635232,0.6582166199813259,0.5035771489681404,0.4954084357720145,0.3858881500829195,0.5086908266850281,0.5269061158096014
0.62875,0.61875,0.665,0.58,0.705,0.52125,0.89,0.79,0.81625,0.7425,0.74125,0.64625,0.4829754123871771,0.4966853408029879,0.6579520697167756,0.5058729310560383,0.4952482649772215,0.3853524888693784,0.5051663795674154,0.5258456311225327
0.62875,0.61875,0.665,0.57975,0.70475,0.52125,0.8895000000000001,0.78975,0.816,0.742,0.74125,0.64575,0.48292872704637413,0.49682539682539684,0.657843137254902,0.5079017617844879,0.4946075815892901,0.375202138971507,0.5227948261744997,0.531269214141047
0.62875,0.61875,0.665,0.5795,0.7045,0.52125,0.889,0.7895,0.81575,0.7415,0.74125,0.6452500000000001,0.4831154684095861,0.4969187675070028,0.6577808901338313,0.5091297383302129,0.49412706904834147,0.37467326948602436,0.5357198692787529,0.5329373751974235
0.62875,0.61875,0.665,0.5792499999999999,0.7042499999999999,0.52125,0.8885,0.78925,0.8155,0.741,0.74125,0.6447499999999999,0.4831310301898537,0.4970432617491441,0.6578898225957049,0.5102509342069032,0.493913507919031,0.37467326948602436,0.5357198692787529,0.5329373751974235
0.62875,0.61875,0.665,0.579,0.7040000000000001,0.52125,0.888,0.789,0.81525,0.7404999999999999,0.74125,0.64425,0.48341114223467163,0.4970432617491441,0.6581232492997199,0.51099839805511,0.4935397759949275,0.37358837681630414,0.5322016186003049,0.5367240701525445
0.62875,0.61875,0.665,0.57875,0.70375,0.52125,0.8875,0.78875,0.815,0.74,0.74125,0.64375,0.4835200746965453,0.49757236227824464,0.6582010582010582,0.5117458621120765,0.4936999467897205,0.37359177268033333,0.5298536492922449,0.5367194677421676
0.62875,0.61875,0.665,0.57875,0.70375,0.52125,0.8875,0.78875,0.815,0.74,0.74125,0.64375,0.4834578275754746,0.4976968565203859,0.6582010582010582,0.5122797648309729,0.494180459382859,0.37785667399100803,0.5298524100044121,0.5403011573537266
0.62875,0.61875,0.665,0.579,0.7034999999999999,0.52125,0.8859999999999999,0.789,0.81525,0.7395,0.741,0.643,0.483348895113601,0.4977279800809213,0.6581854964207905,0.5128670579887666,0.4942872399475142,0.38053157098120544,0.5275093832678268,0.540710919441561
0.62875,0.61875,0.665,0.5792499999999999,0.70325,0.52125,0.8845000000000001,0.78925,0.8155,0.7390000000000001,0.74075,0.64225,0.48303765950824773,0.49791472144413323,0.6580610021786493,0.5133475706862849,0.4942338496129967,0.37893138567538,0.5145868187392393,0.5459721551593142
0.62875,0.61875,0.665,0.5795,0.703,0.52125,0.883,0.7895,0.81575,0.7384999999999999,0.7404999999999999,0.6415000000000001,0.4828197945845005,0.4980547774665422,0.6578275754746343,0.513828083383803,0.49418045927847926,0.3805213899958572,0.5110648647771494,0.546604301941045
0.62875,0.61875,0.665,0.57975,0.7027500000000001,0.52125,0.8815000000000001,0.78975,0.816,0.738,0.7402500000000001,0.64075,0.4827731092436975,0.49797696856520385,0.6578742608154373,0.5143085958725617,0.49402028848368623,0.38052477925314704,0.5016704652296732,0.5463947885750716
0.62875,0.61875,0.665,0.58,0.7025,0.52125,0.88,0.79,0.81625,0.7375,0.74,0.64,0.4829754123871771,0.4981014628073452,0.6580143168378463,0.5145221572106317,0.49380672735437575,0.38478289544250266,0.4957955556484778,0.5451282642650437
0.62875,0.61875,0.665,0.58,0.7025,0.52125,0.88,0.79,0.81625,0.7375,0.74,0.64,0.4832244008714597,0.49789915966386555,0.6580921257391845,0.5144687667717345,0.49450080102463484,0.38478289544250266,0.4957955556484778,0.5451282642650437
0.62875,0.61875,0.665,0.58,0.7025,0.52125,0.88,0.79,0.81625,0.7375,0.74,0.64,0.4834733893557423,0.4980547774665422,0.6581232492997199,0.5143619861026995,0.4953016552595491,0.3853219459133337,0.4934513042039166,0.5466187845114224
0.62875,0.61875,0.665,0.58,0.7025,0.52125,0.88,0.79,0.81625,0.7375,0.74,0.64,0.48370681605975724,0.4981481481481482,0.6582788671023965,0.5139882540742163,0.4963160706237739,0.42003450766033257,0.49700055165804397,0.5367166334443849
0.62875,0.61875,0.665,0.58,0.7025,0.52125,0.88,0.79,0.81625,0.7375,0.74,0.64,0.4838935574229692,0.4981637099284158,0.6582944288826642,0.5136145220457331,0.49754404706511934,0.4259063860048911,0.49582284914051533,0.5341969506920152
0.62875,0.61875,0.665,0.5802499999999999,0.703,0.52125,0.8795000000000001,0.789,0.81475,0.73725,0.73925,0.63975,0.48362900715841894,0.49828820417055714,0.6581854964207905,0.5128670579887666,0.4987186332241371,0.4291101524805712,0.49582656700401406,0.5327204530408578
0.62875,0.61875,0.665,0.5805,0.7034999999999999,0.52125,0.879,0.7879999999999999,0.81325,0.737,0.7384999999999999,0.6395000000000001,0.4835045129162776,0.49866168689698104,0.6580454403983815,0.5123331552698702,0.49887880407111995,0.43232070407757045,0.49347610454043145,0.5308222405948471
0.62875,0.61875,0.665,0.58075,0.7040000000000001,0.52125,0.8785,0.787,0.81175,0.73675,0.73775,0.63925,0.48325552443199504,0.49873949579831933,0.6580298786181139,0.5115856914216632,0.49791777904141266,0.42858806811640765,0.49229714815521297,0.5299824868181656
0.62875,0.61875,0.665,0.581,0.7045,0.52125,0.878,0.7859999999999999,0.81025,0.7365,0.737,0.639,0.48323996265172736,0.49898848428260195,0.6577186430127606,0.5111585691630423,0.49668980254787737,0.4446612078923182,0.5240209046570818,0.5068365768452662
0.6285000000000001,0.61875,0.66475,0.5815,0.70525,0.5215,0.8767499999999999,0.78525,0.80825,0.73625,0.736,0.6385000000000001,0.48328664799253035,0.4992219109866169,0.657516339869281,0.5106246664441458,0.4954084357720145,0.45588287361053254,0.5052296415663206,0.504982966036502
0.62825,0.61875,0.6645,0.58175,0.7055,0.5217499999999999,0.8759999999999999,0.7855,0.8077500000000001,0.73625,0.73575,0.63825,0.4833800186741363,0.49894179894179896,0.6576252723311546,0.510571276214008,0.49402028848368623,0.4681792510131187,0.4911306138080372,0.4987000204738131
0.628,0.61875,0.66425,0.5820000000000001,0.70575,0.522,0.8752500000000001,0.7857500000000001,0.8072499999999999,0.73625,0.7354999999999999,0.638,0.483395580454404,0.49880174291939,0.657563025210084,0.510571276214008,0.4930058731716513,0.4681792510131187,0.4911306138080372,0.4987000204738131
0.628,0.61925,0.66425,0.58225,0.70625,0.5225,0.8745,0.7857500000000001,0.80625,0.73625,0.7347499999999999,0.6375,0.483348895113601,0.4988328664799253,0.6572829131652661,0.5104644955449731,0.49268553137330584,0.4708643289886644,0.4887838692079533,0.4976557705168206
0.628,0.61975,0.66425,0.5825,0.70675,0.523,0.87375,0.7857500000000001,0.80525,0.73625,0.7340000000000001,0.637,0.48336445689386864,0.49897292250233427,0.657609710550887,0.5104644955449731,0.4923651896793401,0.4730103564933792,0.48995909314981617,0.49113899538705935
0.62825,0.62025,0.6645,0.5825,0.7070000000000001,0.52325,0.87375,0.7855,0.80475,0.73625,0.7334999999999999,0.6367499999999999,0.4831154684095861,0.49905073140367257,0.6579209461562403,0.5099839829518347,0.4926321411431681,0.4730103564933792,0.48995909314981617,0.49113899538705935
0.6285000000000001,0.62075,0.66475,0.5825,0.7072499999999999,0.5235,0.87375,0.78525,0.80425,0.73625,0.733,0.6365,0.48303765950824773,0.4995331465919701,0.6579520697167756,0.5095034703586961,0.49305926340178907,0.47143053315825023,0.499358449848624,0.49113763939093436
0.62875,0.62125,0.665,0.5825,0.7075,0.52375,0.87375,0.785,0.80375,0.73625,0.7325,0.63625,0.48316215375038907,0.4998755057578587,0.6579209461562403,0.508702616071592,0.49305926340178907,0.47571240057559233,0.539302621243939,0.48268532602771186
0.62875,0.62125,0.665,0.5825,0.7075,0.52375,0.87375,0.785,0.80375,0.73625,0.7325,0.63625,0.4833800186741363,0.5002023031434796,0.6581388110799875,0.5077949813242123,0.4936465565595827,0.47359013090560326,0.5440010530155817,0.48373554768528604
0.62875,0.62175,0.66525,0.58275,0.708,0.52425,0.87375,0.78525,0.80325,0.73675,0.73225,0.636,0.48325552443199504,0.5001556178026766,0.6581543728602552,0.506620395008625,0.4945008010768247,0.478390693429819,0.562802244988863,0.4816273472746583
0.62875,0.62225,0.6655,0.583,0.7084999999999999,0.52475,0.87375,0.7855,0.8027500000000001,0.73725,0.732,0.63575,0.48333333333333334,0.5001244942421413,0.6580921257391845,0.5060864921853487,0.49487453300092815,0.478390693429819,0.562802244988863,0.4816273472746583
0.62875,0.62275,0.6657500000000001,0.58325,0.7090000000000001,0.52525,0.87375,0.7857500000000001,0.8022499999999999,0.73775,0.73175,0.6355,0.4835045129162776,0.5002023031434796,0.6579987550575785,0.5050186865387963,0.4959423385952907,0.47732955859482445,0.5569285746955007,0.4784661002145293
0.62875,0.6232500000000001,0.6659999999999999,0.5835,0.7095,0.52575,0.87375,0.7859999999999999,0.80175,0.7382500000000001,0.7315,0.63525,0.4835045129162776,0.500093370681606,0.6580921257391845,0.5037907100452611,0.4970101441896533,0.47732955859482445,0.5569285746955007,0.4784661002145293
0.62875,0.62375,0.66625,0.58375,0.71,0.52625,0.87375,0.78625,0.80125,0.73875,0.73125,0.635,0.48362900715841894,0.499953314659197,0.6582944288826642,0.5036305391460884,0.496743192830205,0.4789433207500274,0.5592753192955847,0.47742837632123986
0.62875,0.62375,0.66625,0.58375,0.71,0.52625,0.87375,0.78625,0.80125,0.73875,0.73125,0.635,0.4834267040149393,0.499953314659197,0.6582010582010582,0.503523758633623,0.49631607057158406,0.4789433207500274,0.5592753192955847,0.47742837632123986
0.62875,0.62375,0.66625,0.58375,0.71,0.52625,0.87375,0.78625,0.80125,0.73875,0.73125,0.635,0.483395580454404,0.5002023031434796,0.6582633053221288,0.5030432460926744,0.49636946085391165,0.4906938625604636,0.5510549189819953,0.4774374229424459
0.629,0.624,0.6665000000000001,0.58375,0.71025,0.52625,0.87375,0.78625,0.8015000000000001,0.7390000000000001,0.732,0.635,0.483348895113601,0.5003112356053533,0.6584033613445378,0.5035771489159506,0.4959423385952907,0.4944332836429454,0.5510586368454939,0.47555123366207624
0.62925,0.62425,0.66675,0.58375,0.7105,0.52625,0.87375,0.78625,0.80175,0.73925,0.73275,0.635,0.48327108621226267,0.5006069094304388,0.6585589791472144,0.5043780031508649,0.4957287774659802,0.4965691301623121,0.5522313822116911,0.47385836954688265
0.6295000000000001,0.6245,0.667,0.58375,0.71075,0.52625,0.87375,0.78625,0.802,0.7395,0.7334999999999999,0.635,0.48323996265172736,0.5006691565515095,0.6582944288826642,0.5043780031508649,0.49674319277801515,0.49443667950697473,0.5498833983237742,0.4734514869567018
0.62975,0.62475,0.6672499999999999,0.58375,0.711,0.52625,0.87375,0.78625,0.8022499999999999,0.7397499999999999,0.73425,0.635,0.48336445689386864,0.5007469654528478,0.6582010582010582,0.5038974906099163,0.49727709560129135,0.4971115764971722,0.5581149668077167,0.47721266259651485
0.63,0.625,0.6675,0.58375,0.71125,0.52625,0.87375,0.78625,0.8025,0.74,0.735,0.635,0.48348895113601,0.5002956738250856,0.6579987550575785,0.5036839294806058,0.49743726644827424,0.5030038168124272,0.5593025982077653,0.475084164785068
0.63,0.625,0.6675,0.58375,0.71125,0.52625,0.87375,0.78625,0.8025,0.74,0.735,0.635,0.48348895113601,0.500186741363212,0.6578898225957049,0.5029364655280191,0.49775760814223996,0.5030072060697172,0.5592988803442666,0.47445180928628655
0.63,0.625,0.6675,0.58375,0.71125,0.52625,0.87375,0.78625,0.8025,0.74,0.735,0.635,0.4835667600373483,0.5000311235605354,0.6578586990351696,0.5017618793168115,0.4981847304008609,0.49820325428821155,0.5663452960038259,0.4742409412535963
0.63,0.625,0.6675,0.58375,0.71125,0.52625,0.87375,0.78625,0.8025,0.74,0.735,0.635,0.4835045129162776,0.5001089324618736,0.657796451914099,0.5005339028232763,0.49882541378879236,0.5094317117344841,0.5358004958871754,0.46710525891603377
0.63025,0.625,0.6677500000000001,0.58375,0.71175,0.527,0.8732500000000001,0.78625,0.8027500000000001,0.74075,0.7345,0.63575,0.4834578275754746,0.499953314659197,0.657749766573296,0.4996796583060343,0.49909236520043043,0.5094317117344841,0.5358004958871754,0.46710525891603377
0.6305,0.625,0.6679999999999999,0.58375,0.7122499999999999,0.5277499999999999,0.87275,0.78625,0.8029999999999999,0.7415,0.7340000000000001,0.6365,0.48316215375038907,0.500186741363212,0.6578742608154373,0.4987720235064647,0.4989855846357752,0.5115879202245472,0.5170067396408915,0.4635327262665418
0.63075,0.625,0.66825,0.58375,0.7127500000000001,0.5285,0.87225,0.78625,0.80325,0.74225,0.7334999999999999,0.63725,0.48291316526610645,0.5001089324618736,0.6578586990351696,0.4979177789892228,0.49850507209482664,0.5115879202245472,0.5170067396408915,0.4635327262665418
0.631,0.625,0.6685,0.58375,0.71325,0.52925,0.87175,0.78625,0.8035,0.743,0.733,0.638,0.4826019296607532,0.5,0.657749766573296,0.4977042178599123,0.4969033635728082,0.5062856419136037,0.5263986606127019,0.4561621388708627
0.63125,0.625,0.66875,0.58375,0.71375,0.53,0.87125,0.78625,0.80375,0.74375,0.7325,0.63875,0.4824774354186119,0.49984438219732336,0.6578275754746343,0.4981847304008609,0.4945541910460131,0.5068280882484639,0.5193472732219541,0.4527960739136949
0.6315,0.625,0.66875,0.5842499999999999,0.7142499999999999,0.5305,0.87075,0.7857500000000001,0.8035,0.74425,0.73225,0.63925,0.4826953003423592,0.4997510115157174,0.6578586990351696,0.49903897491810284,0.4933262145524778,0.5068280882484639,0.5193472732219541,0.4527960739136949
0.6317499999999999,0.625,0.66875,0.58475,0.71475,0.531,0.8702500000000001,0.78525,0.80325,0.7447499999999999,0.732,0.63975,0.4829754123871771,0.4995487083722378,0.6580298786181139,0.4998398291530171,0.49172450618702895,0.5068280882484639,0.5193472732219541,0.4527960739136949
0.632,0.625,0.66875,0.5852499999999999,0.71525,0.5315,0.8697499999999999,0.78475,0.8029999999999999,0.7452500000000001,0.73175,0.6402500000000001,0.4828042328042328,0.49948646125116714,0.6581232492997199,0.5016017085220185,0.4893219435344759,0.4999459866023914,0.5240233978126045,0.43491450515555635
0.63225,0.625,0.66875,0.58575,0.71575,0.532,0.86925,0.78425,0.8027500000000001,0.74575,0.7315,0.64075,0.4831154684095861,0.4996732026143791,0.6582477435418612,0.5035237586858128,0.4877736253991648,0.4999459866023914,0.5240233978126045,0.43491450515555635
0.6325,0.625,0.66875,0.58625,0.71625,0.5325,0.86875,0.78375,0.8025,0.74625,0.73125,0.64125,0.48331777155306566,0.4993775287892935,0.6584033613445378,0.5058195407737106,0.4865456490621991,0.49889163688871596,0.5310660810288084,0.4286102478537709
0.6325,0.625,0.66875,0.58625,0.71625,0.5325,0.86875,0.78375,0.8025,0.74625,0.73125,0.64125,0.48333333333333334,0.49973544973544975,0.6584033613445378,0.5076882006029875,0.4852642822863362,0.49197899228659875,0.5275304803206998,0.42102805859220427
0.6325,0.625,0.66875,0.58625,0.71625,0.5325,0.86875,0.78375,0.8025,0.74625,0.73125,0.64125,0.4834267040149393,0.5001244942421413,0.6580921257391845,0.509610250714592,0.4847303793586803,0.49199256252923684,0.5169521672366735,0.4168216150366112
0.6325,0.625,0.66875,0.58625,0.71625,0.5325,0.86875,0.78375,0.8025,0.74625,0.73125,0.64125,0.48401805166511047,0.500140056022409,0.6580610021786493,0.5108382272603171,0.48515750161730126,0.49093821942230076,0.513426480831228,0.4134577635437062
0.63275,0.6255,0.66875,0.58675,0.7165,0.5335,0.868,0.78525,0.8022499999999999,0.74575,0.732,0.6402500000000001,0.48411142234671645,0.4999844382197323,0.6580143168378463,0.5116924718819388,0.4857447947750949,0.49093821942230076,0.513426480831228,0.4134577635437062
0.633,0.626,0.66875,0.58725,0.71675,0.5345,0.86725,0.78675,0.802,0.7452500000000001,0.73275,0.63925,0.48406473700591346,0.5001244942421413,0.6578586990351696,0.5125467163991807,0.4860117461345432,0.46864081764477733,0.44759749400837145,0.3760289881873714
0.63325,0.6265,0.66875,0.58775,0.7170000000000001,0.5355,0.8665,0.78825,0.80175,0.7447499999999999,0.7334999999999999,0.63825,0.48398692810457516,0.49982882041705573,0.6578898225957049,0.5136145220457331,0.4860117461345432,0.46225364666411356,0.45464640282345353,0.37455439557782866
0.6335000000000001,0.627,0.66875,0.58825,0.7172499999999999,0.5365,0.86575,0.78975,0.8015000000000001,0.74425,0.73425,0.63725,0.48437597261126675,0.4997043261749144,0.6578586990351696,0.5157501333388379,0.48238120693626496,0.46225364666411356,0.45464640282345353,0.37455439557782866
0.63375,0.6275,0.66875,0.58875,0.7175,0.5375,0.865,0.79125,0.80125,0.74375,0.735,0.63625,0.48437597261126675,0.5000622471210706,0.6577808901338313,0.5154831817706302,0.4832354514535069,0.4499878122175721,0.4569918935558477,0.37138254117154185
0.63375,0.6275,0.66875,0.58875,0.7175,0.5375,0.865,0.79125,0.80125,0.74375,0.735,0.63625,0.48440709617180205,0.5003423591658885,0.657563025210084,0.513721302349439,0.4848371598189558,0.4499878122175721,0.4569918935558477,0.37138254117154185
0.63375,0.6275,0.66875,0.58875,0.7175,0.5375,0.865,0.79125,0.80125,0.74375,0.735,0.63625,0.48411142234671645,0.5004201680672269,0.657749766573296,0.5111585688499031,0.4862786974939914,0.44625857212043857,0.4581683567855434,0.3732526313214481
0.6335000000000001,0.6275,0.66875,0.58875,0.7172499999999999,0.5375,0.866,0.7907500000000001,0.80125,0.74275,0.7347499999999999,0.63525,0.4838157485216309,0.5004979769685652,0.6579365079365079,0.5085958353503671,0.487720235169027,0.44037990865456095,0.4605225371126247,0.37282540081294546
0.63325,0.6275,0.66875,0.58875,0.7170000000000001,0.5375,0.867,0.79025,0.80125,0.74175,0.7345,0.63425,0.4834267040149393,0.5006535947712418,0.6581076875194523,0.5053390281805722,0.49188467729496116,0.4361251883292345,0.47814726585621037,0.3749184074199342
0.633,0.6275,0.66875,0.58875,0.71675,0.5375,0.868,0.78975,0.80125,0.74075,0.73425,0.63325,0.48320883909119206,0.5005913476501712,0.6582010582010582,0.5039508808922439,0.4914575550363402,0.4345114261740316,0.4746215794507649,0.3746977416505373
0.63275,0.6275,0.66875,0.58875,0.7165,0.5375,0.8690000000000001,0.78925,0.80125,0.7397499999999999,0.7340000000000001,0.63225,0.48303765950824773,0.5005135387488329,0.6583877995642702,0.5038974906099163,0.4902295786993745,0.4345114261740316,0.4746215794507649,0.3746977416505373
0.6325,0.6275,0.66875,0.58875,0.71625,0.5375,0.87,0.78875,0.80125,0.73875,0.73375,0.63125,0.4830532212885154,0.5007158418923124,0.6583411142234672,0.5035771489159506,0.4896422855415808,0.427019000552951,0.5592405900765498,0.3964873417582268
0.6325,0.6275,0.66875,0.58875,0.71625,0.5375,0.87,0.78875,0.80125,0.73875,0.73375,0.63125,0.4832244008714597,0.5009025832555244,0.6582321817615935,0.5034169780689677,0.4883609187657179,0.4610737292622297,0.6204021419034431,0.44104084247167147
0.6325,0.6275,0.66875,0.58875,0.71625,0.5375,0.87,0.78875,0.80125,0.73875,0.73375,0.63125,0.4830220977279801,0.5007158418923124,0.6582944288826642,0.5037373197629335,0.4873465033493033,0.4738616414661953,0.6063229573303429,0.45008491653203725
0.6325,0.6275,0.66875,0.58875,0.71625,0.5375,0.87,0.78875,0.80125,0.73875,0.73375,0.63125,0.4831777155306567,0.5007780890133832,0.6583255524431995,0.504644954562503,0.48558462408468167,0.4738616414661953,0.6063229573303429,0.45008491653203725
0.63275,0.62775,0.669,0.589,0.7165,0.5379999999999999,0.8695,0.789,0.8009999999999999,0.73875,0.73375,0.63075,0.48369125427948956,0.5009959539371304,0.6583411142234672,0.5054458088496071,0.4840363057406111,0.49355541975769845,0.5887354363814581,0.47303333763401234
0.633,0.628,0.66925,0.5892499999999999,0.71675,0.5385,0.8690000000000001,0.78925,0.8007500000000001,0.73875,0.73375,0.63025,0.48440709617180205,0.5009959539371304,0.6581699346405229,0.5051788574379691,0.4845702085638873,0.49355541975769845,0.5887354363814581,0.47303333763401234
0.63325,0.62825,0.6695,0.5895,0.7170000000000001,0.539,0.8684999999999999,0.7895,0.8005,0.73875,0.73375,0.62975,0.48473389355742297,0.5010582010582011,0.6582633053221288,0.5045381740500376,0.48585157533975015,0.5026208769858496,0.5934487541869522,0.47933347642992047
0.6335000000000001,0.6285000000000001,0.66975,0.58975,0.7172499999999999,0.5395,0.868,0.78975,0.80025,0.73875,0.73375,0.62925,0.48523187052598815,0.5013538748832866,0.6580454403983815,0.5031500267095195,0.4876134546043718,0.5228672825975611,0.5758538120909266,0.4989063951075797
0.63375,0.62875,0.67,0.59,0.7175,0.54,0.8675,0.79,0.8,0.73875,0.73375,0.62875,0.4855119825708061,0.5013227513227513,0.657796451914099,0.5014415376750356,0.4911906034159426,0.5228672825975611,0.5758538120909266,0.4989063951075797
0.634,0.629,0.67,0.5902499999999999,0.7177500000000001,0.54025,0.86775,0.79125,0.8007500000000001,0.7390000000000001,0.733,0.62825,0.4850918145035792,0.5011048863990041,0.65765639589169,0.4996796583060343,0.4948745329487383,0.5244505017967194,0.5547207615514128,0.5018531634629838
0.63425,0.62925,0.67,0.5905,0.718,0.5405,0.868,0.7925,0.8015000000000001,0.73925,0.73225,0.62775,0.4846249610955493,0.5009181450357921,0.6579676314970433,0.49941270689439615,0.49578216774830786,0.5244505017967194,0.5547207615514128,0.5018531634629838
0.6345000000000001,0.6295000000000001,0.67,0.59075,0.71825,0.5407500000000001,0.8682500000000001,0.79375,0.8022499999999999,0.7395,0.7315,0.62725,0.4845782757547463,0.5009492685963274,0.6579053843759726,0.4998398291530171,0.49610250933789385,0.5292205147581509,0.5394626205930942,0.515504013676077
0.63475,0.62975,0.67,0.591,0.7184999999999999,0.541,0.8684999999999999,0.795,0.8029999999999999,0.7397499999999999,0.73075,0.6267499999999999,0.48445378151260504,0.5007780890133832,0.6580610021786493,0.5003737319762933,0.496476241366377,0.5211958237875585,0.5418229973593399,0.5215597993114568
0.635,0.63,0.67,0.59125,0.71875,0.54125,0.86875,0.79625,0.80375,0.74,0.73,0.62625,0.48436041083099907,0.5006535947712418,0.6582010582010582,0.5009076347995696,0.4957287774659802,0.5153239520497392,0.5476954283648694,0.5211296627171413
0.635,0.63,0.67,0.59125,0.71875,0.54125,0.86875,0.79625,0.80375,0.74,0.73,0.62625,0.48445378151260504,0.5006224712107065,0.6583877995642702,0.501975440446122,0.4947143621539453,0.5153239520497392,0.5476954283648694,0.5211296627171413
0.635,0.63,0.67,0.59125,0.71875,0.54125,0.86875,0.79625,0.80375,0.74,0.73,0.62625,0.48468720821662,0.5008870214752568,0.6582633053221288,0.5027762946810362,0.49434063017765195,0.5014647174186914,0.5758786124274412,0.5112026370976591
0.635,0.63,0.67,0.59125,0.71875,0.54125,0.8684999999999999,0.7957500000000001,0.80325,0.7397499999999999,0.7295,0.626,0.48470276999688766,0.5008092125739184,0.6582633053221288,0.5025093432693981,0.4947677524884628,0.5014647174186914,0.5758786124274412,0.5112026370976591
0.635,0.63,0.67,0.59125,0.71875,0.54125,0.8682500000000001,0.79525,0.8027500000000001,0.7395,0.7290000000000001,0.62575,0.48470276999688766,0.5010737628384687,0.6582477435418612,0.5018686598814667,0.49508809413023863,0.5004171594330744,0.5864432787654488,0.5103516804000513
0.635,0.63,0.67,0.59125,0.71875,0.54125,0.868,0.79475,0.8022499999999999,0.73925,0.7284999999999999,0.6255,0.4847650171179583,0.5010893246187363,0.6584967320261438,0.5011745862112077,0.49562199690132497,0.4972066012293358,0.5864432787654488,0.5059234065136834
0.635,0.63,0.67,0.59125,0.71875,0.54125,0.86775,0.79425,0.80175,0.7390000000000001,0.728,0.62525,0.4850295673825086,0.5011048863990041,0.6585122938064114,0.5002135611293105,0.4963160705193942,0.4854934007097422,0.6075775685927954,0.5000137946017552
0.635,0.63,0.67,0.59125,0.71875,0.54125,0.8675,0.79375,0.80125,0.73875,0.7275,0.625,0.4850295673825086,0.501244942421413,0.6584344849050732,0.4992525360474133,0.4970635344719809,0.4796452801999093,0.5887602512978295,0.48548991951882486
0.635,0.63,0.67,0.59125,0.71875,0.54125,0.8675,0.79375,0.80125,0.73875,0.7275,0.625,0.4850606909430439,0.5014628073451602,0.6584033613445378,0.49887880407111995,0.4975440470129295,0.4796452801999093,0.5887602512978295,0.48548991951882486
0.635,0.63,0.67,0.59125,0.71875,0.54125,0.8675,0.79375,0.80125,0.73875,0.7275,0.625,0.4850918145035792,0.5013227513227513,0.6585589791472144,0.4987720235064647,0.4983982915301714,0.48232356644739666,0.5875874913517757,0.4869758413430506
0.635,0.63,0.67,0.59125,0.71875,0.54125,0.8675,0.79375,0.80125,0.73875,0.7275,0.625,0.4850451291627762,0.5013227513227513,0.6582788671023965,0.49855846237715423,0.4991991457650857,0.48605959827258866,0.5781918670963233,0.4861306236996304
0.63525,0.63025,0.67,0.59125,0.71875,0.5415,0.8684999999999999,0.79375,0.8009999999999999,0.7384999999999999,0.7282500000000001,0.62475,0.4847183317771553,0.5013227513227513,0.6581699346405229,0.4973838761659466,0.5005872931056038,0.4924501651172816,0.5746748557057081,0.4920282443517087
0.6355,0.6305,0.67,0.59125,0.71875,0.54175,0.8695,0.79375,0.8007500000000001,0.7382500000000001,0.7290000000000001,0.6245,0.48474945533769065,0.5011360099595393,0.6579987550575785,0.4967965831125326,0.5020822210107772,0.491382245160968,0.5688049032758445,0.49477018018658636
0.63575,0.63075,0.67,0.59125,0.71875,0.542,0.8704999999999999,0.79375,0.8005,0.738,0.7297499999999999,0.62425,0.48437597261126675,0.5009803921568627,0.657796451914099,0.49604911915994593,0.5033101974521226,0.491382245160968,0.5688049032758445,0.49477018018658636
0.636,0.631,0.67,0.59125,0.71875,0.54225,0.8715,0.79375,0.80025,0.73775,0.7304999999999999,0.624,0.4843137254901961,0.5009025832555244,0.657609710550887,0.4954084357720145,0.5042178322516921,0.49565053572893253,0.5605845029622551,0.49665800995638554
0.63625,0.63125,0.67,0.59125,0.71875,0.5425,0.8725,0.79375,0.8,0.7375,0.73125,0.62375,0.48411142234671645,0.5008558979147214,0.65765639589169,0.49492792323106594,0.5045915642279855,0.5009765718746018,0.560585742250088,0.4970834563993982
0.63625,0.63125,0.67,0.59125,0.71875,0.5425,0.8725,0.79375,0.8,0.7375,0.73125,0.62375,0.48401805166511047,0.5009803921568627,0.6576719576719576,0.4956753871836526,0.5044847836633303,0.49296885361741605,0.5547170436879141,0.49981845139528736
0.63625,0.631,0.67,0.591,0.7184999999999999,0.54225,0.872,0.7935,0.7995,0.73775,0.731,0.62425,0.4838001867413632,0.5008558979147214,0.6580454403983815,0.49572877741379034,0.5040042711223817,0.4961726200930962,0.5476718673161877,0.5025660611433621
0.63625,0.63075,0.67,0.59075,0.71825,0.542,0.8715,0.79325,0.799,0.738,0.73075,0.62475,0.48398692810457516,0.5007002801120448,0.6584500466853408,0.4959423385431008,0.5037907100452611,0.4961726200930962,0.5476718673161877,0.5025660611433621
0.63625,0.6305,0.67,0.5905,0.718,0.54175,0.871,0.7929999999999999,0.7985,0.7382500000000001,0.7304999999999999,0.62525,0.4837535014005602,0.5006535947712418,0.6585278555866791,0.49620928995473895,0.503096636375002,0.4961760159571254,0.5429771388281868,0.5004575709217979
0.63625,0.63025,0.67,0.5902499999999999,0.7177500000000001,0.5415,0.8704999999999999,0.7927500000000001,0.7979999999999999,0.7384999999999999,0.7302500000000001,0.62575,0.48369125427948956,0.5007936507936508,0.6583566760037348,0.4970101441896533,0.5027762946810362,0.4897786639911133,0.5558823387472569,0.4935460427201341
0.63625,0.63,0.67,0.59,0.7175,0.54125,0.87,0.7925,0.7975,0.73875,0.73,0.62625,0.4838624338624339,0.5008403361344538,0.6584033613445378,0.49727709560129135,0.5026161238340534,0.4887175291561189,0.5511789498242827,0.4905968854186159
0.63625,0.63,0.67,0.59,0.7175,0.54125,0.87,0.7925,0.7975,0.73875,0.73,0.62625,0.48398692810457516,0.5007936507936508,0.6582477435418612,0.4975974372952571,0.5024025627047429,0.4887175291561189,0.5511789498242827,0.4905968854186159
0.63625,0.63,0.67,0.59,0.7175,0.54125,0.87,0.7925,0.7975,0.73875,0.73,0.62625,0.48403361344537815,0.5007780890133832,0.6580921257391845,0.49775760814223996,0.501975440446122,0.4897922408404909,0.5394241735105608,0.48683663105852304
0.636,0.62975,0.66975,0.59,0.7172499999999999,0.541,0.8695,0.79175,0.7979999999999999,0.7395,0.73,0.6267499999999999,0.4842981637099284,0.5007314036725802,0.6581854964207905,0.4975974372952571,0.5025627335517258,0.4897922408404909,0.5382489349888411,0.4843145128307603
0.63575,0.6295000000000001,0.6695,0.59,0.7170000000000001,0.5407500000000001,0.8690000000000001,0.7909999999999999,0.7985,0.7402500000000001,0.73,0.62725,0.4844693432928727,0.5006224712107065,0.6583566760037348,0.496743192830205,0.5032568072219848,0.48765979018515354,0.5347182914320638,0.4824293618180119
0.6355,0.62925,0.66925,0.59,0.71675,0.5405,0.8684999999999999,0.79025,0.799,0.741,0.73,0.62775,0.48443821973233736,0.5005757858699035,0.6583566760037348,0.4959423385952907,0.503683929428416,0.48765979018515354,0.5347182914320638,0.4824293618180119
0.63525,0.629,0.669,0.59,0.7165,0.54025,0.868,0.7895,0.7995,0.74175,0.73,0.62825,0.4842670401493931,0.5006380329909742,0.6582944288826642,0.49604911915994593,0.5043246127641575,0.4967354283986529,0.5217944876156436,0.48292144084707717
0.635,0.62875,0.66875,0.59,0.71625,0.54,0.8675,0.78875,0.8,0.7425,0.73,0.62875,0.48428260192966077,0.5006691565515095,0.6584500466853408,0.4959423385952907,0.5046983447404508,0.495657327456991,0.5288396639873701,0.48230110452571295
0.635,0.62875,0.66875,0.59,0.71625,0.54,0.8675,0.78875,0.8,0.7425,0.73,0.62875,0.48400248988484285,0.5007002801120448,0.6582944288826642,0.49604911915994593,0.5042712224818299,0.495657327456991,0.5288396639873701,0.48230110452571295
0.635,0.62875,0.66875,0.59,0.71625,0.54,0.8675,0.78875,0.8,0.7425,0.73,0.62875,0.48373793962029255,0.5005757858699035,0.6584500466853408,0.49658302193103226,0.5036839293762261,0.49779656323364746,0.5405832721307392,0.48357527691976715
0.63475,0.6285000000000001,0.66875,0.5895,0.71625,0.5395,0.868,0.7885,0.80025,0.74275,0.7304999999999999,0.6295000000000001,0.48348895113601,0.5005291005291005,0.6582944288826642,0.4978643887068952,0.5029898557581569,0.49779656323364746,0.5405832721307392,0.48357527691976715
0.6345000000000001,0.62825,0.66875,0.589,0.71625,0.539,0.8684999999999999,0.78825,0.8005,0.743,0.731,0.63025,0.4834578275754746,0.5004201680672269,0.6582166199813259,0.498451681812499,0.5022423918577601,0.4924467692532525,0.552329373429631,0.4821076902902033
0.63425,0.628,0.66875,0.5885,0.71625,0.5385,0.8690000000000001,0.7879999999999999,0.8007500000000001,0.7432500000000001,0.7315,0.631,0.48328664799253035,0.5003112356053533,0.6579053843759726,0.49935931661206856,0.5020822210107772,0.4924467692532525,0.552329373429631,0.4821076902902033
0.634,0.62775,0.66875,0.588,0.71625,0.5379999999999999,0.8695,0.7877500000000001,0.8009999999999999,0.7434999999999999,0.732,0.6317499999999999,0.48303765950824773,0.5002956738250856,0.6577808901338313,0.5001067805646553,0.5019220501637943,0.49565053572893253,0.546450745984937,0.47937904454675795
0.6335000000000001,0.6267499999999999,0.66875,0.58725,0.71575,0.53675,0.8702500000000001,0.7875,0.8015000000000001,0.74375,0.733,0.6335000000000001,0.48288204170557114,0.5006224712107065,0.657609710550887,0.5005872931056038,0.5016017084698287,0.491921295631799,0.5335083236913095,0.4706098920536817
0.63325,0.626,0.66875,0.5870000000000001,0.71525,0.536,0.8704999999999999,0.7875,0.80175,0.74375,0.7334999999999999,0.6345000000000001,0.4827731092436975,0.5003267973856209,0.6578275754746343,0.5006406833879314,0.50112119592888,0.4961997737918512,0.5264594294560844,0.4723001146352477
0.633,0.62525,0.66875,0.58675,0.71475,0.53525,0.87075,0.7875,0.802,0.74375,0.7340000000000001,0.6355,0.4823685029567383,0.5004201680672269,0.6580610021786493,0.5011745862112077,0.5006940736702591,0.49245695023860075,0.5252842055142215,0.4718899563838395
0.63275,0.6245,0.66875,0.5865,0.7142499999999999,0.5345,0.871,0.7875,0.8022499999999999,0.74375,0.7345,0.6365,0.4823840647370059,0.5004046062869593,0.6582010582010582,0.5017084890344838,0.4998398291530171,0.49245695023860075,0.5252842055142215,0.4718899563838395
0.6325,0.62375,0.66875,0.58625,0.71375,0.53375,0.87125,0.7875,0.8025,0.74375,0.735,0.6375,0.4826953003423592,0.5005757858699035,0.6585745409274821,0.5022957821400876,0.4994660971767238,0.4999256180249555,0.5158860881032467,0.4742245722533156
0.6325,0.62375,0.66875,0.58625,0.71375,0.53375,0.87125,0.7875,0.8025,0.74375,0.735,0.6375,0.4828197945845005,0.500186741363212,0.6584189231248054,0.5030432460926744,0.4995194874590514,0.4999256180249555,0.5158860881032467,0.4742245722533156
