C0,C1,C2,C3,C4,C5,C6,C7,C8,C9,C10,C11,Ax,Ay,Az,Gr,Gp,Fx_norm,Fy_norm,Fz_norm
0.62375,0.59375,0.66,0.5625,0.695,0.48875,0.86375,0.79625,0.80875,0.76125,0.74875,0.72625,0.492686546761185,0.4996289569785381,0.5592790048235593,0.49981624403261793,0.49846870027181595,0.5781341318385493,0.5481877352599359,0.40659319816738665
0.62375,0.59375,0.66,0.5625,0.695,0.48875,0.86375,0.79625,0.80875,0.76125,0.74875,0.72625,0.49277198429902164,0.4995752533833265,0.55927412267854,0.49983921352854066,0.49848401326909775,0.5781341318385493,0.5481877352599359,0.40659319816738665
0.62375,0.59375,0.66,0.5625,0.695,0.48875,0.86375,0.79625,0.80875,0.76125,0.74875,0.72625,0.4928173882477005,0.4995840412443611,0.55923604194739,0.4998346196293561,0.4985115766642051,0.5781341318385493,0.5481877352599359,0.40659319816738665
0.62375,0.59375,0.66,0.5625,0.695,0.48875,0.86375,0.79625,0.80875,0.76125,0.74875,0.72625,0.49288183256195445,0.49953717265217645,0.5592419005214131,0.4999632488065236,0.4986218302266719,0.5781341318385493,0.5481877352599359,0.40659319816738665
0.62375,0.594,0.66025,0.5625,0.695,0.4885,0.86375,0.79625,0.80875,0.76125,0.7490000000000001,0.72625,0.49306344835667,0.4996074755404534,0.5592711933915285,0.5000367511934765,0.4986953326136247,0.5781341318385493,0.5481877352599359,0.40659319816738665
0.62375,0.59425,0.6605,0.5625,0.695,0.48825,0.86375,0.79625,0.80875,0.76125,0.74925,0.72625,0.49306930693069306,0.4995664655222919,0.5593356377057824,0.5,0.4988055862120164,0.5781341318385493,0.5481877352599359,0.40659319816738665
0.62375,0.5945,0.6607500000000001,0.5625,0.695,0.488,0.86375,0.79625,0.80875,0.76125,0.7495,0.72625,0.49306930693069306,0.4996660612806843,0.5594176577421056,0.5000551267902146,0.4988239618087546,0.5781341318385493,0.5481877352599359,0.40659319816738665
0.62375,0.59475,0.6609999999999999,0.5625,0.695,0.48774999999999996,0.86375,0.79625,0.80875,0.76125,0.7497499999999999,0.72625,0.49304587263460076,0.49974808131700743,0.5594938192044057,0.5000367511934765,0.49875045940383933,0.5781341318385493,0.5481877352599359,0.40659319816738665
0.62375,0.595,0.66125,0.5625,0.695,0.4875,0.8640000000000001,0.79625,0.80875,0.76125,0.7497499999999999,0.72625,0.4929638525982776,0.499789091335169,0.5594762434823364,0.4999632488065236,0.4986953326136247,0.5781341318385493,0.5481877352599359,0.40659319816738665
0.62375,0.595,0.66125,0.5625,0.695,0.4875,0.86425,0.79625,0.80875,0.76125,0.7495,0.72625,0.49284668111781593,0.49970121272482276,0.5594821020563595,0.49990812201630896,0.4985667034544197,0.5781341318385493,0.5481877352599359,0.40659319816738665
0.62375,0.595,0.66125,0.5625,0.695,0.4875,0.8645,0.79625,0.80875,0.76125,0.74925,0.72625,0.49284082254379286,0.4996953541507997,0.5594176577421056,0.49985299522609433,0.49847482547072863,0.5763743902241537,0.5469987343468653,0.406221150067853
0.62375,0.595,0.66125,0.5625,0.695,0.4875,0.8647499999999999,0.79625,0.80875,0.76125,0.7490000000000001,0.72625,0.4928115296736774,0.4996543441326381,0.5593473548538286,0.49974274164566507,0.49849320106746686,0.5781341318385493,0.5416570087003884,0.4047176570364511
0.62375,0.595,0.66125,0.5625,0.695,0.4875,0.865,0.79625,0.80875,0.76125,0.74875,0.72625,0.4927880953775851,0.4995664655222919,0.5593707891499209,0.4997978684358797,0.4985115766821675,0.5790195984239829,0.5464061089374687,0.4060408520582824
0.62375,0.595,0.66125,0.5625,0.695,0.4875,0.865,0.79625,0.80875,0.76125,0.74875,0.72625,0.4927529439334466,0.4995547483742457,0.5593649305758979,0.49992649761304714,0.4985115766821675,0.5798966767854269,0.5428460022458866,0.4062231092880608
0.62375,0.595,0.66125,0.5625,0.695,0.4875,0.865,0.79625,0.80875,0.76125,0.74875,0.72625,0.4927763782295389,0.49954303122619953,0.559376647723944,0.49994487320978537,0.49845644987399046,0.5768101315157578,0.5422515054731375,0.4060352113045765
0.62375,0.595,0.66125,0.5625,0.695,0.4875,0.865,0.79625,0.80875,0.76125,0.74875,0.72625,0.4927880953775851,0.4995313140781534,0.5594059405940595,0.49998162440326177,0.4985850790511579,0.5790140080891112,0.5446244899825737,0.4064076656994737
0.62375,0.595,0.66125,0.56225,0.695,0.4875,0.865,0.79625,0.80875,0.76125,0.74875,0.72625,0.49284668111781593,0.49947272833792256,0.5593590720018747,0.5000183755967382,0.4986034546478961,0.5776955926578274,0.5446251162262152,0.4058416690137825
0.62375,0.595,0.66125,0.562,0.695,0.4875,0.865,0.79625,0.80875,0.76125,0.74875,0.72625,0.49284082254379286,0.4994024254496456,0.5593414962798055,0.5001102535804293,0.4987137082283254,0.5768129239615117,0.5422508792294959,0.40509517887031377
0.62375,0.595,0.66125,0.56175,0.695,0.4875,0.865,0.79625,0.80875,0.76125,0.74875,0.72625,0.49287011541390824,0.49937313257953014,0.5592946276876208,0.5000735023869528,0.49873208382506357,0.5820893672456728,0.5440337506716741,0.40490399024974527
0.62375,0.595,0.66125,0.5615,0.695,0.4875,0.865,0.79625,0.80875,0.76125,0.74875,0.72625,0.4928583982658621,0.49941414259769173,0.5593239205577363,0.5000735023869528,0.49878721063324066,0.5820893672456728,0.5440337506716741,0.40490399024974527
0.62375,0.595,0.66125,0.56125,0.695,0.4875,0.865,0.79625,0.80875,0.76125,0.74875,0.72625,0.4928349639697698,0.49950787978206107,0.5592946276876208,0.5001653803706438,0.49867695707077386,0.5790140080891112,0.5440343769153156,0.40659226356959705
0.62375,0.595,0.66125,0.56125,0.695,0.4875,0.8647499999999999,0.79625,0.80875,0.76125,0.74875,0.72625,0.49276466108149275,0.49953717265217645,0.559376647723944,0.5002388827575968,0.49854832789360637,0.5790140080891112,0.5440343769153156,0.40659226356959705
0.62375,0.595,0.66125,0.56125,0.695,0.4875,0.8645,0.79625,0.80875,0.76125,0.74875,0.72625,0.4927880953775851,0.49966020270666117,0.559382506297967,0.5001837559673821,0.4984564499278778,0.5803296201879132,0.5464086212796073,0.40715572416673634
0.62375,0.595,0.66125,0.56125,0.695,0.4875,0.86425,0.79625,0.80875,0.76125,0.74875,0.72625,0.492852539691839,0.49970121272482276,0.5594176577421056,0.5002388827575968,0.49827269394253326,0.5781313393927955,0.5440312456971077,0.40621709066782147
0.62375,0.595,0.66125,0.56125,0.695,0.4875,0.8640000000000001,0.79625,0.80875,0.76125,0.74875,0.72625,0.492852539691839,0.4996894955767766,0.5593942234460132,0.5003307607412878,0.49827269394253326,0.5790112101999934,0.5440324981843909,0.4073430369901344
0.62375,0.595,0.66125,0.56125,0.695,0.4875,0.86375,0.79625,0.80875,0.76125,0.74875,0.72625,0.4928935497100006,0.4996660612806843,0.5594352334641748,0.5004593899184552,0.498291069521309,0.582525108537277,0.5446301335429203,0.4090274593880422
0.62375,0.595,0.66125,0.56125,0.695,0.4875,0.86375,0.79625,0.80875,0.76125,0.74875,0.72625,0.4929579940242545,0.49966020270666117,0.5594703849083134,0.5004961411119316,0.498291069521309,0.5794357653784901,0.5428491408316669,0.41127900614856844
0.62375,0.595,0.66125,0.56125,0.695,0.4875,0.86375,0.79625,0.80875,0.76125,0.74875,0.72625,0.4930165797644853,0.4995957583924073,0.5594996777784287,0.5005328923054081,0.49823594271313193,0.5794357653784901,0.5428491408316669,0.41127900614856844
0.62375,0.595,0.66125,0.56125,0.695,0.4875,0.86375,0.79625,0.80875,0.76125,0.74875,0.72625,0.49294041830218527,0.4995195969301072,0.559511394926475,0.5006063946923609,0.498291069521309,0.579438563267608,0.5434448900916993,0.41052689301941264
0.62375,0.595,0.66125,0.56125,0.695,0.4875,0.86375,0.79625,0.80875,0.76125,0.74875,0.72625,0.4929990040424161,0.4995664655222919,0.5594938192044057,0.5006063946923609,0.49832782069682297,0.579438563267608,0.5434448900916993,0.41052689301941264
0.62375,0.595,0.6609999999999999,0.56125,0.6945,0.4875,0.86375,0.7957500000000001,0.80875,0.7609999999999999,0.74875,0.72625,0.4929579940242545,0.49954303122619953,0.559511394926475,0.5004777655151934,0.49832782069682297,0.5895249426507578,0.5458266567472623,0.41783443377228274
0.62375,0.595,0.6607500000000001,0.56125,0.6940000000000001,0.4875,0.86375,0.79525,0.80875,0.76075,0.74875,0.72625,0.4928759739879313,0.49951373835608415,0.5594996777784287,0.5005328923054081,0.49843807427725223,0.5895249426507578,0.5458266567472623,0.41783443377228274
0.62375,0.595,0.6605,0.56125,0.6934999999999999,0.4875,0.86375,0.79475,0.80875,0.7605,0.74875,0.72625,0.49284082254379286,0.4994903040599918,0.5594645263342902,0.5005512679021463,0.4985667034544197,0.5917288192241111,0.5452321526069408,0.418398342123496
0.62375,0.595,0.66025,0.56125,0.693,0.4875,0.86375,0.79425,0.80875,0.7602500000000001,0.74875,0.72625,0.4928876911359775,0.49954303122619953,0.5594586677602671,0.5004777655151934,0.49862183026259677,0.5952259411134156,0.5482027724749065,0.4242114337665401
0.62375,0.595,0.66,0.56125,0.6925,0.4875,0.86375,0.79375,0.80875,0.76,0.74875,0.72625,0.4928115296736774,0.4995547483742457,0.5594996777784287,0.5004593899184552,0.49862183026259677,0.5952259411134156,0.5482027724749065,0.4242114337665401
0.62375,0.595,0.66,0.56125,0.6925,0.4875,0.86375,0.79375,0.80875,0.76,0.74875,0.72625,0.49284668111781593,0.4995957583924073,0.5594821020563595,0.5005696434988844,0.49865858145607317,0.5978627610892553,0.543456803456034,0.424025358781786
0.62375,0.595,0.66,0.56125,0.6925,0.4875,0.86375,0.79375,0.80875,0.76,0.74875,0.72625,0.4928935497100006,0.49968363700275353,0.5594410920381979,0.5005696434988844,0.49873208384302603,0.6013766594265388,0.5511740185865136,0.4273997685210938
0.6235,0.59475,0.66025,0.56125,0.6922499999999999,0.48774999999999996,0.8640000000000001,0.79325,0.809,0.76,0.7490000000000001,0.72625,0.4928935497100006,0.49974808131700743,0.5593883648719902,0.5006063946923609,0.49873208384302603,0.6048933556529403,0.5511771571722939,0.4296404294087605
0.6232500000000001,0.5945,0.6605,0.56125,0.6920000000000001,0.488,0.86425,0.7927500000000001,0.80925,0.76,0.74925,0.72625,0.492922842580116,0.49977737418712287,0.5594117991680825,0.5005880190956227,0.4988239618087546,0.612773060573619,0.5547485436169967,0.4384577092439127
0.623,0.59425,0.6607500000000001,0.56125,0.69175,0.48825,0.8645,0.7922499999999999,0.8095,0.76,0.7495,0.72625,0.49291112543206983,0.49974808131700743,0.559376647723944,0.5006431458858374,0.4988055862120164,0.6127758584627369,0.5559375445300673,0.4393934951216791
0.62275,0.594,0.6609999999999999,0.56125,0.6915,0.4885,0.8647499999999999,0.79175,0.80975,0.76,0.7497499999999999,0.72625,0.4928583982658621,0.4997363641689613,0.5593590720018747,0.5006247702890991,0.49876883501854,0.6127758584627369,0.5559375445300673,0.4393934951216791
0.6225,0.59375,0.66125,0.56125,0.69125,0.48875,0.865,0.79125,0.81,0.76,0.75,0.72625,0.4928759739879313,0.4996660612806843,0.5593532134278517,0.5006431458858374,0.49876883501854,0.6167171098676351,0.5571265454431379,0.44275977776918174
0.6225,0.59375,0.66125,0.56125,0.69125,0.48875,0.865,0.79125,0.81,0.76,0.75,0.72625,0.49278223680356203,0.49964262698459194,0.5594059405940595,0.5005145167086699,0.49887908859896923,0.6167171098676351,0.5571265454431379,0.44275977776918174
0.6225,0.594,0.6609999999999999,0.56125,0.69125,0.489,0.8652500000000001,0.792,0.81025,0.7597499999999999,0.75,0.72625,0.4926709238971234,0.4996250512625227,0.5594235163161286,0.5004410143217171,0.4989709665826603,0.6167171098676351,0.5553474314628092,0.4431358011667912
0.6225,0.59425,0.6607500000000001,0.56125,0.69125,0.48924999999999996,0.8654999999999999,0.7927500000000001,0.8105,0.7595000000000001,0.75,0.72625,0.49270021676723885,0.49961919268849964,0.559376647723944,0.5003675119347641,0.49909959575982776,0.6272616027686039,0.5577248070453089,0.4476369840335541
0.6225,0.5945,0.6605,0.56125,0.69125,0.48950000000000005,0.86575,0.7935,0.8107500000000001,0.75925,0.75,0.72625,0.4927295096373543,0.49961333411447656,0.5593297791317593,0.5002940095478113,0.4992282249369952,0.6272616027686039,0.5577248070453089,0.4476369840335541
0.6225,0.59475,0.66025,0.56125,0.69125,0.48975,0.866,0.79425,0.8109999999999999,0.759,0.75,0.72625,0.4927470853594235,0.4996543441326381,0.5593707891499209,0.5002388827575968,0.49928335172720983,0.6241750574989349,0.5565401972053017,0.4496971633087891
0.6225,0.595,0.66,0.56125,0.69125,0.49,0.86625,0.795,0.81125,0.75875,0.75,0.72625,0.49280567109965434,0.49967777842873046,0.5593180619837131,0.5003123851445496,0.49924660053373343,0.6241750574989349,0.5565401972053017,0.4496971633087891
0.6225,0.595,0.66,0.56125,0.69125,0.49,0.86625,0.795,0.81125,0.75875,0.75,0.72625,0.4928759739879313,0.49970707129884584,0.5592887691135977,0.5004410143217171,0.4993201029206863,0.6285660287542985,0.558321189916555,0.4530819341721342
0.6225,0.595,0.66,0.56125,0.69125,0.49,0.86625,0.795,0.81125,0.75875,0.75,0.72625,0.49288183256195445,0.49974808131700743,0.5593356377057824,0.5006063946923609,0.49941198090437733,0.6377809255542399,0.5595133220478337,0.45889680853973247
0.6225,0.595,0.66,0.56125,0.69125,0.49,0.86625,0.795,0.81125,0.75875,0.75,0.72625,0.49292870115413906,0.499789091335169,0.5594176577421056,0.5007533994662665,0.49941198090437733,0.6373367905952823,0.5571397112947557,0.45927592475715
0.6225,0.595,0.66,0.56125,0.69125,0.49,0.86625,0.795,0.81125,0.75875,0.75,0.72625,0.4928994082840237,0.49978323276114595,0.5594059405940595,0.5008636530466958,0.49946710769459196,0.6373367905952823,0.5571397112947557,0.45927592475715
0.6225,0.595,0.66,0.5615,0.6915,0.4905,0.86725,0.7957500000000001,0.81125,0.75875,0.75,0.726,0.49290526685804675,0.49974808131700743,0.5594176577421056,0.5009922822238633,0.4996324880652358,0.6439316438673632,0.5595164532660415,0.460967357230747
0.6225,0.595,0.66,0.56175,0.69175,0.491,0.8682500000000001,0.7965000000000001,0.81125,0.75875,0.75,0.72575,0.4929345597281622,0.49977737418712287,0.5593707891499209,0.501139286997769,0.4997978684358797,0.6439316438673632,0.5595164532660415,0.460967357230747
0.6225,0.595,0.66,0.562,0.6920000000000001,0.4915,0.86925,0.7972499999999999,0.81125,0.75875,0.75,0.7254999999999999,0.4929814283203468,0.4998008084832152,0.5593473548538286,0.501139286997769,0.49994487320978537,0.6470125988021606,0.5630771862012652,0.46228451349525096
0.6225,0.595,0.66,0.56225,0.6922499999999999,0.49200000000000005,0.8702500000000001,0.7979999999999999,0.81125,0.75875,0.75,0.7252500000000001,0.49298728689436994,0.49982424277930754,0.5592887691135977,0.5011576625945071,0.5001837559673821,0.6474511325395186,0.5589250877115003,0.4643577558179175
0.6225,0.595,0.66,0.5625,0.6925,0.4925,0.87125,0.79875,0.81125,0.75875,0.75,0.725,0.4929755697463237,0.49980666705723825,0.5591891733552053,0.50123116498146,0.5004593899184552,0.6514035700575241,0.5607079665212508,0.4639843218129164
0.6225,0.595,0.66,0.5625,0.6925,0.4925,0.87125,0.79875,0.81125,0.75875,0.75,0.725,0.49296971117230065,0.49992383853769995,0.5591891733552053,0.5013781697733282,0.5006063946923609,0.6518393113491283,0.5613012108067168,0.46416520972071157
0.6225,0.595,0.66,0.5625,0.6925,0.4925,0.87125,0.79875,0.81125,0.75875,0.75,0.725,0.4929579940242545,0.49991212138965374,0.5592477590954361,0.501543550143972,0.5006063946923609,0.6531521310021764,0.5624908379634289,0.4673498333284026
0.6225,0.59475,0.66,0.5625,0.693,0.493,0.87075,0.7995,0.81125,0.7585,0.7497499999999999,0.72575,0.4928759739879313,0.4998769699455153,0.5592887691135977,0.5016170525129624,0.5007166482727902,0.6571045685201821,0.5642730831619656,0.46998302054955243
0.6225,0.5945,0.66,0.5625,0.6934999999999999,0.4935,0.8702500000000001,0.80025,0.81125,0.75825,0.7495,0.7265,0.4928935497100006,0.49981838420528446,0.5592770519655516,0.501672179303177,0.5008452774499577,0.6641183811925241,0.5619051086016621,0.47543093794727437
0.6225,0.59425,0.66,0.5625,0.6940000000000001,0.494,0.8697499999999999,0.8009999999999999,0.81125,0.758,0.74925,0.72725,0.4928994082840237,0.4998769699455153,0.5593414962798055,0.501708930478691,0.500882028643434,0.6685149536694874,0.5624996127419835,0.47805926976114993
0.6225,0.594,0.66,0.5625,0.6945,0.49450000000000005,0.86925,0.80175,0.81125,0.75775,0.7490000000000001,0.728,0.4928583982658621,0.49984181850137677,0.5594293748901518,0.5016354280737757,0.5010841602255167,0.6685149536694874,0.5624996127419835,0.47805926976114993
0.6225,0.59375,0.66,0.5625,0.695,0.495,0.86875,0.8025,0.81125,0.7575,0.74875,0.72875,0.4927763782295389,0.49984181850137677,0.5593942234460132,0.5014516721063936,0.5013230430010759,0.669836156103161,0.5630928570274495,0.4786280228588263
0.6225,0.59375,0.66,0.5625,0.695,0.495,0.86875,0.8025,0.81125,0.7575,0.74875,0.72875,0.49272365106333116,0.4998535356494229,0.559376647723944,0.5013230429471887,0.501561925776635,0.6808219860739696,0.5648776145681246,0.48200930645234563
0.6225,0.59375,0.66,0.5625,0.695,0.495,0.86875,0.8025,0.81125,0.7575,0.74875,0.72875,0.4926123381568926,0.4998652527974691,0.5594352334641748,0.5012495405602357,0.5019661888869132,0.6808219860739696,0.5648776145681246,0.48200930645234563
0.6225,0.59375,0.66,0.5625,0.695,0.495,0.86875,0.8025,0.81125,0.7575,0.74875,0.72875,0.4925478938426387,0.499859394223446,0.5594469506122209,0.5011576625945071,0.5022969496461634,0.6834560081606914,0.5642868752572251,0.48350971969381995
0.6225,0.59375,0.66,0.5625,0.695,0.495,0.86875,0.8025,0.81125,0.7575,0.74875,0.72875,0.4925830452867772,0.49982424277930754,0.5593590720018747,0.5011209114010308,0.5025358323857977,0.7054416412178058,0.563106649122709,0.4923657586852113
0.6225,0.594,0.66,0.5625,0.695,0.4955,0.86925,0.8035,0.81125,0.75825,0.74925,0.73,0.4925889038608003,0.4998535356494229,0.5593707891499209,0.5010841602075543,0.5028665930911606,0.7054416412178058,0.563106649122709,0.4923657586852113
0.6225,0.59425,0.66,0.5625,0.695,0.496,0.8697499999999999,0.8045,0.81125,0.759,0.7497499999999999,0.73125,0.4926240553049388,0.4998769699455153,0.5593532134278517,0.5011209114010308,0.5031238514095706,0.70500030959133,0.5589545506329442,0.49312123470806124
0.6225,0.5945,0.66,0.5625,0.695,0.4965,0.8702500000000001,0.8055,0.81125,0.7597499999999999,0.7502500000000001,0.7325,0.4926064795828695,0.49998242427793077,0.5593180619837131,0.5011209114010308,0.5033627342210547,0.7129023867382234,0.5589545506329442,0.4950158859354978
0.6225,0.59475,0.66,0.5625,0.695,0.49700000000000005,0.87075,0.8065000000000001,0.81125,0.7605,0.75075,0.73375,0.49260062100884644,0.49998828285195385,0.5592887691135977,0.5009187798369105,0.503601616960689,0.7129023867382234,0.5589545506329442,0.4950158859354978
0.6225,0.595,0.66,0.5625,0.695,0.4975,0.87125,0.8075,0.81125,0.76125,0.75125,0.735,0.49253031812056947,0.5000468685921846,0.5593297791317593,0.5007350238695284,0.5038956265085003,0.7124610496683835,0.5542066955155747,0.4950225347281377
0.6225,0.595,0.66,0.5625,0.695,0.4975,0.87125,0.8075,0.81125,0.76125,0.75125,0.735,0.4925127423985002,0.5000292928701154,0.559376647723944,0.5005512679021463,0.5041528848987601,0.7124610496683835,0.5542066955155747,0.4950225347281377
0.6225,0.595,0.66,0.5625,0.695,0.4975,0.87125,0.8075,0.81125,0.76125,0.75125,0.735,0.49245415665826936,0.49997070712988456,0.5594645263342902,0.5002572583543349,0.5046857771862058,0.7234552624198176,0.5476778476869519,0.4977092368528838
0.6225,0.595,0.66,0.5625,0.695,0.4975,0.87125,0.8075,0.81125,0.76125,0.75125,0.735,0.49238971234401546,0.499929697111723,0.5596754349991212,0.500091877983691,0.50531054743938,0.7428236498381893,0.5417397391692287,0.49607586908023393
0.62275,0.595,0.66,0.56275,0.69525,0.49774999999999997,0.87225,0.80825,0.8122499999999999,0.764,0.75225,0.7382500000000001,0.4924131466401078,0.5000234342960923,0.5597750307575137,0.5002205071608585,0.5063028296273183,0.7432677793537829,0.5417384866819456,0.49684219425537113
0.623,0.595,0.66,0.563,0.6955,0.498,0.8732500000000001,0.809,0.81325,0.7667499999999999,0.75325,0.7415,0.4925654695647079,0.5000820200363232,0.5599390708301599,0.5002572583543349,0.5073686142022096,0.7432677793537829,0.5417384866819456,0.49684219425537113
0.6232500000000001,0.595,0.66,0.56325,0.69575,0.49825,0.87425,0.80975,0.8142499999999999,0.7695000000000001,0.75425,0.7447499999999999,0.49255961099068485,0.5000761614623,0.5600503837365985,0.5001470047739057,0.5092613007560574,0.746354324623452,0.5399556152397674,0.4955561272856519
0.6235,0.595,0.66,0.5635,0.696,0.4985,0.8752500000000001,0.8105,0.81525,0.77225,0.7552500000000001,0.748,0.4925127423985002,0.5001640400726464,0.560366746733845,0.4996876148734129,0.513303931822914,0.7459185833318479,0.5411414775670577,0.4951966897413373
0.62375,0.595,0.66,0.56375,0.69625,0.49875,0.87625,0.81125,0.81625,0.775,0.75625,0.75125,0.4924424395102232,0.5000117171480462,0.5607709883414377,0.49869533263158716,0.518173465227976,0.7459185833318479,0.5411414775670577,0.4951966897413373
0.62375,0.595,0.66,0.56375,0.69625,0.49875,0.87625,0.81125,0.81625,0.775,0.75625,0.75125,0.49237213662194623,0.5001757572206925,0.5614037143359306,0.4974090408239876,0.5244395437695926,0.748125252350955,0.5369806042987384,0.4910966056848677
0.624,0.596,0.6607500000000001,0.564,0.6975,0.5,0.87725,0.812,0.8175,0.77725,0.75825,0.7547499999999999,0.4922783994375769,0.5002226258128771,0.5625812877145703,0.4959389931388183,0.5313487684305582,0.748125252350955,0.5369806042987384,0.4910966056848677
0.62425,0.597,0.6615000000000001,0.5642499999999999,0.69875,0.50125,0.87825,0.8127500000000001,0.81875,0.7795000000000001,0.7602500000000001,0.75825,0.4921553693830922,0.5003632315894311,0.5636885582049329,0.49423006266012726,0.5395442840369261,0.7490079264906347,0.5310431220246568,0.4905375397110483
0.6245,0.598,0.6622499999999999,0.5645,0.7,0.5025,0.87925,0.8134999999999999,0.82,0.78175,0.76225,0.7617499999999999,0.492003046458492,0.5006268674204699,0.5650711816743804,0.49235575182875485,0.5477030490605407,0.7490079264906347,0.5310431220246568,0.4905375397110483
0.62475,0.599,0.6629999999999999,0.56475,0.70125,0.50375,0.8802500000000001,0.8142499999999999,0.82125,0.784,0.76425,0.7652500000000001,0.49189173355205346,0.5010545433241549,0.5662370379049739,0.4908857041615479,0.5547776533556901,0.7547452702950046,0.5262902569581546,0.48850765609242436
0.625,0.6,0.66375,0.565,0.7025,0.505,0.88125,0.815,0.8225,0.78625,0.76625,0.76875,0.4916046634249224,0.5006444431425391,0.5678774386314371,0.4895626613400964,0.5626056576739418,0.7547452702950046,0.5262902569581546,0.48850765609242436
0.625,0.6,0.66375,0.565,0.7025,0.505,0.88125,0.815,0.8225,0.78625,0.76625,0.76875,0.4913117347237682,0.5006034331243775,0.568721073290761,0.4886622569741871,0.5742557858263417,0.7556279389913202,0.5167907892615661,0.48627517323155006
0.625,0.6,0.66375,0.565,0.7025,0.505,0.88125,0.815,0.8225,0.78625,0.76625,0.76875,0.4909777960044525,0.5008319175112778,0.5706836955884937,0.487541345519269,0.5873208354125699,0.7526196856266748,0.5238922006003379,0.4649711753458211
0.625,0.6,0.66375,0.565,0.7025,0.505,0.88125,0.815,0.8225,0.78625,0.76625,0.76875,0.4906438572851368,0.5006620188646084,0.5725877321459957,0.4866409412970592,0.6020948162678365,0.7517482030434666,0.5274504285609951,0.46385932853870376
0.6265,0.60125,0.66425,0.56575,0.7034999999999999,0.5065,0.88625,0.81625,0.8242499999999999,0.787,0.7685,0.7709999999999999,0.49059698869295215,0.5007206046048391,0.5754584334173062,0.48406835753816063,0.624108782345732,0.7469214850531347,0.5292251514682604,0.4578569612984501
0.628,0.6025,0.66475,0.5665,0.7045,0.508,0.89125,0.8175,0.826,0.7877500000000001,0.77075,0.77325,0.490304059991798,0.5018161579471556,0.5783525689847091,0.4800624773414564,0.6464718842766676,0.7350641779424819,0.5363340850983036,0.44944096150738305
0.6295000000000001,0.60375,0.66525,0.56725,0.7055,0.5095000000000001,0.89625,0.81875,0.8277500000000001,0.7885,0.773,0.7755,0.4898705255140899,0.5029585798816568,0.581598218993497,0.47322675513929335,0.6699375226585436,0.7350641779424819,0.5363340850983036,0.44944096150738305
0.631,0.605,0.6657500000000001,0.568,0.7065,0.511,0.90125,0.82,0.8295,0.78925,0.7752500000000001,0.77775,0.4893959810182202,0.5033921143593649,0.5848907375944695,0.46440646899235216,0.6956449842376549,0.727153712571599,0.5381063030310025,0.4411955287742499
0.6325,0.60625,0.66625,0.56875,0.7075,0.5125,0.90625,0.82125,0.83125,0.79,0.7775,0.78,0.48922608237155074,0.5043763547952428,0.588821840763958,0.45277471570023015,0.7227306140812491,0.727153712571599,0.5381063030310025,0.4411955287742499
0.6325,0.60625,0.66625,0.56875,0.7075,0.5125,0.90625,0.82125,0.83125,0.79,0.7775,0.78,0.4879196203644033,0.5054250395453747,0.5915402191106685,0.4405916950448352,0.7486218294363244,0.6705235604445432,0.5742579928267991,0.38460316167632985
0.6325,0.60625,0.66625,0.56875,0.7075,0.5125,0.90625,0.82125,0.83125,0.79,0.7775,0.78,0.48647841115472495,0.5057882711348057,0.5946628390649715,0.4269018760676301,0.7764976067243844,0.6705235604445432,0.5742579928267991,0.38460316167632985
0.6325,0.60625,0.66625,0.56875,0.7075,0.5125,0.90625,0.82125,0.83125,0.79,0.7775,0.78,0.4849727576307927,0.5067607944226376,0.5972464702091511,0.4125689114021746,0.8021499382620789,0.6643952089142707,0.5813706839186917,0.3756055956769529
0.6335000000000001,0.6082500000000001,0.6679999999999999,0.5715,0.71,0.514,0.9095,0.8255,0.8327500000000001,0.7922499999999999,0.7797499999999999,0.78175,0.48372488136387604,0.5081785693362235,0.5987814166031988,0.4008452809346715,0.8219772054361743,0.6354349064156442,0.6122088511346,0.3418449835026552
0.6345000000000001,0.61025,0.66975,0.5742499999999999,0.7125,0.5155,0.9127500000000001,0.82975,0.8342499999999999,0.7945,0.782,0.7835,0.48154549182728923,0.5086765481281856,0.5987755580291757,0.38744947179267686,0.8392318875580753,0.6209575557771307,0.6193209086152788,0.3296540851972996
0.6355,0.61225,0.6715000000000001,0.5770000000000001,0.715,0.517,0.9159999999999999,0.8340000000000001,0.83575,0.79675,0.78425,0.78525,0.48010428261761084,0.5088347296268089,0.5994551526158532,0.37385153027825196,0.8510841475081075,0.5836622327291245,0.6406564769163905,0.2887549665403094
0.6365,0.61425,0.67325,0.57975,0.7175,0.5185,0.91925,0.83825,0.8372499999999999,0.799,0.7865000000000001,0.787,0.4774093385669928,0.5102876559845334,0.5988810123615912,0.3630650541846134,0.8568908367240293,0.5836622327291245,0.6406564769163905,0.2887549665403094
0.6375,0.61625,0.675,0.5825,0.72,0.52,0.9225,0.8425,0.83875,0.80125,0.78875,0.78875,0.47489015173706717,0.5114007850489191,0.5929579940242545,0.3713708232636359,0.8485299422019754,0.5678608763244556,0.6412390676923773,0.2761792994184845
0.6375,0.61625,0.675,0.5825,0.72,0.52,0.9225,0.8425,0.83875,0.80125,0.78875,0.78875,0.4723065205928877,0.5114183607709883,0.586197199601617,0.38201029357747207,0.8342337278318742,0.5261745765777217,0.6518911847005349,0.23095954702563462
0.6375,0.61625,0.675,0.5825,0.72,0.52,0.9225,0.8425,0.83875,0.80125,0.78875,0.78875,0.46074169547132227,0.510123615911887,0.5730915695119808,0.39739066810124024,0.8153987416242711,0.5143312480259301,0.6584074929211814,0.21538796331672647
0.638,0.61775,0.6759999999999999,0.58625,0.7215,0.524,0.9222499999999999,0.8447499999999999,0.84,0.8009999999999999,0.78825,0.789,0.4535942351631613,0.5104106860390181,0.5639932040541332,0.41677692253431364,0.7849871272801783,0.47134331473925545,0.6548053984353237,0.16170266560461613
0.6385000000000001,0.61925,0.677,0.59,0.723,0.528,0.922,0.847,0.84125,0.8007500000000001,0.7877500000000001,0.78925,0.44857343722537935,0.5090866483098014,0.555843927588025,0.4481440663999481,0.7314590150056348,0.47134331473925545,0.6548053984353237,0.16170266560461613
0.639,0.62075,0.6779999999999999,0.59375,0.7245,0.532,0.92175,0.84925,0.8425,0.8005,0.7872499999999999,0.7895,0.44403890093151327,0.5050852422520359,0.5517487843458903,0.47047041631113484,0.6696986324465332,0.4533520657634584,0.6565744777822423,0.14124054843269113
0.6395000000000001,0.62225,0.679,0.5975,0.726,0.536,0.9215000000000001,0.8515,0.84375,0.80025,0.78675,0.78975,0.43957466752592417,0.5009666647138087,0.5453980901048685,0.4909408308978752,0.6060088146189244,0.3616304726051137,0.6464203423503062,0.039836950045940143
0.64,0.62375,0.68,0.60125,0.7275,0.54,0.92125,0.85375,0.845,0.8,0.78625,0.79,0.44422051672622886,0.4975745503544437,0.5442498095963443,0.5112458645571359,0.5433112800570007,0.3533401910647996,0.5947621158639002,0.0052606744618645665
0.64,0.62375,0.68,0.60125,0.7275,0.54,0.92125,0.85375,0.845,0.8,0.78625,0.79,0.44499384849727575,0.49224910656746146,0.5374245708594528,0.5298419686717527,0.4944689448249634,0.3533346007299279,0.5929830092511437,0.004882368466104913
0.64,0.62375,0.68,0.60125,0.7275,0.54,0.92125,0.85375,0.845,0.8,0.78625,0.79,0.44618313902396156,0.4871521471673795,0.5294100415958756,0.5365674371138621,0.47429254007343347,0.35554965797302457,0.5965437421863674,0.004885493268346838
0.64,0.624,0.6807500000000001,0.6025,0.7282500000000001,0.541,0.9209999999999999,0.8540000000000001,0.8447499999999999,0.799,0.7855,0.7895,0.44836252856054837,0.4840178100650302,0.5231003573730154,0.5364020567611807,0.4762403533636085,0.3533373931756817,0.5971382389591166,0.0046993389197753895
0.64,0.62425,0.6815000000000001,0.60375,0.7290000000000001,0.542,0.9207500000000001,0.85425,0.8445,0.7979999999999999,0.78475,0.789,0.4547542328197317,0.481035795887281,0.5189349112426036,0.5304483633461512,0.4859610437327595,0.3533373931756817,0.5971382389591166,0.0046993389197753895
0.64,0.6245,0.6822499999999999,0.605,0.7297499999999999,0.5429999999999999,0.9205,0.8545,0.84425,0.797,0.784,0.7885,0.4617552287773156,0.47923135508817155,0.516351280098424,0.5248070554888075,0.49632488036495914,0.35026483190823793,0.5906075123995689,0.003565195618116609
0.64,0.62475,0.6829999999999999,0.60625,0.7304999999999999,0.544,0.92025,0.8547499999999999,0.8440000000000001,0.7959999999999999,0.78325,0.7879999999999999,0.4699572324096315,0.4773448942527389,0.5138672447126369,0.51503123809593,0.5027195882454052,0.35465860105271935,0.5965443684300089,0.00470067152118638
0.64,0.625,0.68375,0.6075,0.73125,0.545,0.92,0.855,0.84375,0.795,0.7825,0.7875,0.4781182260237858,0.4756693420821372,0.5114535122151268,0.502094817992231,0.504943035432766,0.35377593235640376,0.5935768797802514,0.005447592835244996
0.64,0.625,0.68375,0.6075,0.73125,0.545,0.92,0.855,0.84375,0.795,0.7825,0.7875,0.48542386783057,0.474239850020505,0.5086003866658855,0.48675119491341334,0.5047409037788335,0.3520245789659976,0.5906100173741353,0.003951840737372693
0.6405,0.62575,0.6835,0.6075,0.73175,0.5455,0.9205,0.8552500000000001,0.84425,0.795,0.7825,0.7872499999999999,0.4885113363407347,0.4738707598570508,0.5066963501083837,0.47671811898657657,0.5046306501624793,0.35377593235640376,0.5900167730886693,0.005258113498086157
0.6409999999999999,0.6265,0.68325,0.6075,0.73225,0.546,0.9209999999999999,0.8554999999999999,0.8447499999999999,0.795,0.7825,0.787,0.4927295096373543,0.47385904270900464,0.5043587790731736,0.46492098634766993,0.5054943032271376,0.3533346007299279,0.594172636407856,0.003942145321773587
0.6415000000000001,0.62725,0.6829999999999999,0.6075,0.73275,0.5465,0.9215000000000001,0.85575,0.8452500000000001,0.795,0.7825,0.78675,0.4957583924072881,0.47459136446189,0.5028414084011952,0.4578647569127986,0.5074972433254897,0.35201059496377235,0.5923922625726719,0.004504256734017548
0.642,0.628,0.6827500000000001,0.6075,0.7332500000000001,0.547,0.922,0.856,0.84575,0.795,0.7825,0.7865000000000001,0.49858808366043705,0.47555217060167554,0.5014763606538168,0.4552002955474203,0.5087100326742866,0.35201059496377235,0.5923922625726719,0.004504256734017548
0.6425,0.62875,0.6825,0.6075,0.73375,0.5475,0.9225,0.85625,0.84625,0.795,0.7825,0.78625,0.5007381803269084,0.4763196437986994,0.5003515144413849,0.45650496322119466,0.5082138916162423,0.3515720557830504,0.5888309033938067,0.0035659797800135407
0.6425,0.62875,0.6825,0.6075,0.73375,0.5475,0.9225,0.85625,0.84625,0.795,0.7825,0.78625,0.5029117112894721,0.47698166266330777,0.49898060811998357,0.45929805406910196,0.5063947075930469,0.3542088812022541,0.5876431623355916,0.0031904053210128204
0.6425,0.62875,0.6825,0.6075,0.73375,0.5475,0.9225,0.85625,0.84625,0.795,0.7825,0.78625,0.5031636299724647,0.4773273185306696,0.49774444900111314,0.4649577372178224,0.5006615215544253,0.3542088812022541,0.5876431623355916,0.0031904053210128204
0.64275,0.629,0.6822499999999999,0.60775,0.733,0.54775,0.922,0.856,0.84625,0.79475,0.7822499999999999,0.7865000000000001,0.5026480754584334,0.47758509578768527,0.4968363700275353,0.46929437840728855,0.49320102909908803,0.3542060833131362,0.5923922625726719,0.002637424301369611
0.643,0.62925,0.682,0.608,0.73225,0.5479999999999999,0.9215000000000001,0.85575,0.84625,0.7945,0.782,0.78675,0.5009080789735778,0.4779834788212549,0.49649071416017343,0.4713156940844164,0.4848217571301643,0.35113072415657454,0.5917990182872059,0.0035687113167724737
0.64325,0.6295000000000001,0.68175,0.6082500000000001,0.7315,0.54825,0.9209999999999999,0.8554999999999999,0.84625,0.79425,0.78175,0.787,0.4987814166031988,0.478838830628625,0.4965551584744273,0.47135244495456885,0.4757993388981919,0.35113351660232833,0.589424155046845,0.0028161528026117337
0.6435,0.62975,0.6815000000000001,0.6085,0.73075,0.5485,0.9205,0.8552500000000001,0.84625,0.794,0.7815000000000001,0.7872499999999999,0.49618020973695004,0.48053195852129593,0.4972054601909895,0.46980889461301,0.466280780326673,0.34936817920969704,0.5917990182872059,0.005067539650968726
0.64375,0.63,0.68125,0.60875,0.73,0.54875,0.92,0.855,0.84625,0.79375,0.78125,0.7875,0.4940418302185248,0.48277579237213664,0.49871111371492177,0.46782433009343366,0.4577361280050678,0.34936817920969704,0.5917990182872059,0.005067539650968726
0.64375,0.63,0.68125,0.60875,0.73,0.54875,0.92,0.855,0.84625,0.79375,0.78125,0.7875,0.4913293104458375,0.4854648778487316,0.5009666647138087,0.4687063587368677,0.44887909012577687,0.350245257571141,0.5870517967810504,0.003199349741683354
0.64375,0.63,0.68125,0.60875,0.73,0.54875,0.92,0.855,0.84625,0.79375,0.78125,0.7875,0.4885054777667116,0.48810709473314196,0.5033100943230417,0.4731532528241903,0.43934215568808305,0.350245257571141,0.5870517967810504,0.003199349741683354
0.64375,0.63,0.68125,0.60875,0.73,0.54875,0.92,0.855,0.84625,0.79375,0.78125,0.7875,0.48497861620481575,0.491153553225145,0.5062159470384908,0.4802094820435123,0.42894156804203143,0.3502480554602589,0.5900186518195941,0.0033770856029410887
0.64375,0.63,0.68125,0.60875,0.73,0.54875,0.92,0.855,0.84625,0.79375,0.78125,0.7875,0.48082488722245004,0.49391880016404005,0.5095260413615326,0.4895994121383991,0.41767732661282386,0.3511279262674567,0.5912051477580983,0.0033833458682362943
0.64425,0.63025,0.68175,0.609,0.73075,0.54925,0.91975,0.855,0.84625,0.794,0.78125,0.7875,0.47552287773156016,0.4965200070302888,0.5132931044583748,0.5004042630923157,0.4061374510708812,0.3511279262674567,0.5912051477580983,0.0033833458682362943
0.6447499999999999,0.6305,0.6822499999999999,0.60925,0.7315,0.54975,0.9195,0.855,0.84625,0.79425,0.78125,0.7875,0.4701681410744625,0.4985177807721601,0.5169898646669401,0.5101617047627178,0.39518559634895567,0.35244633625537647,0.5894272862650529,0.00470223629137651
0.6452500000000001,0.63075,0.6827500000000001,0.6095,0.73225,0.55025,0.91925,0.855,0.84625,0.7945,0.78125,0.7875,0.46412209268264104,0.5001113129064386,0.5212256136856289,0.5168320463248003,0.38619992956193394,0.35244633625537647,0.5894272862650529,0.00470223629137651
0.64575,0.631,0.68325,0.60975,0.733,0.5507500000000001,0.919,0.855,0.84625,0.79475,0.78125,0.7875,0.4583572558439276,0.5009959575839241,0.5252211611693713,0.5200110246862476,0.38026461086348295,0.35113072415657454,0.588832163248662,0.00338080977968441
0.64625,0.63125,0.68375,0.61,0.73375,0.55125,0.91875,0.855,0.84625,0.795,0.78125,0.7875,0.4527447419298143,0.5016579764485324,0.5290585271544906,0.5200845270013507,0.3775633974783559,0.3511279262674567,0.5900192780632357,0.00544721496871154
0.64625,0.63125,0.68375,0.61,0.73375,0.55125,0.91875,0.855,0.84625,0.795,0.78125,0.7875,0.4481164684515789,0.5022848438690023,0.5325268029761556,0.5169790513142553,0.3785556807440408,0.35156926333729654,0.5906144084471987,0.004137223953927617
0.64625,0.63125,0.68375,0.61,0.73375,0.55125,0.91875,0.855,0.84625,0.795,0.78125,0.7875,0.44388071943289004,0.5034331243775265,0.5361239674263284,0.5129180445249233,0.3826718149881978,0.35156926333729654,0.5906144084471987,0.004137223953927617
0.64625,0.63125,0.68375,0.61,0.73375,0.55125,0.91875,0.855,0.84625,0.795,0.78125,0.7875,0.44082840236686394,0.5050149393637589,0.5393696174351162,0.5112274898405574,0.38910327302029857,0.3520133928528902,0.5906137822035571,0.005071025736259809
0.6459999999999999,0.6317499999999999,0.68375,0.6104999999999999,0.73375,0.55125,0.919,0.8554999999999999,0.846,0.795,0.78075,0.787,0.4382037612045228,0.5065440271837834,0.543171831976097,0.5154538769825708,0.3984564531072301,0.3520133928528902,0.5906137822035571,0.005071025736259809
0.64575,0.63225,0.68375,0.611,0.73375,0.55125,0.91925,0.856,0.84575,0.795,0.7802500000000001,0.7865000000000001,0.43673325912472905,0.5075458433417306,0.5467279864081083,0.5236493931637369,0.4096839430914871,0.35023966723626937,0.5888340419795869,0.003753852888271583
0.6455,0.63275,0.68375,0.6114999999999999,0.73375,0.55125,0.9195,0.8565,0.8454999999999999,0.795,0.7797499999999999,0.7859999999999999,0.4361063917042592,0.5078914992090925,0.550248989395981,0.5350790139397291,0.42131569552141185,0.35156926333729654,0.5935825233405979,0.004696205825791317
0.6452500000000001,0.63325,0.68375,0.612,0.73375,0.55125,0.91975,0.857,0.8452500000000001,0.795,0.77925,0.7855,0.4364168961274826,0.5074638233054075,0.5534126193684458,0.5479419314409261,0.4322124236507096,0.35156926333729654,0.5935825233405979,0.004696205825791317
0.645,0.63375,0.68375,0.6125,0.73375,0.55125,0.92,0.8575,0.845,0.795,0.77875,0.785,0.43910012303005447,0.5039135274474194,0.5787040834260941,0.5547960285033672,0.43695332786064167,0.35243515014226906,0.5912064002453815,0.005818677908158968
0.645,0.63375,0.68375,0.6125,0.73375,0.55125,0.92,0.8575,0.845,0.795,0.77875,0.785,0.44431425391059814,0.49691839006385846,0.5811060987755581,0.5642410854782808,0.3853362780779706,0.35243515014226906,0.5912064002453815,0.005818677908158968
0.645,0.63375,0.68375,0.6125,0.73375,0.55125,0.92,0.8575,0.845,0.795,0.77875,0.785,0.4536528209033921,0.49146991622239145,0.5798640810826645,0.5561741984922446,0.33577729196858896,0.3511251283783388,0.5935825233405979,0.005067904487621617
0.6445000000000001,0.633,0.68375,0.6125,0.7334999999999999,0.5515,0.9215000000000001,0.85775,0.8452500000000001,0.79475,0.7795000000000001,0.7865000000000001,0.46280391352744743,0.49062628156306753,0.5881891147694651,0.5287026813506598,0.2889378966912043,0.3515636675590608,0.5918021568729861,0.003758502186527734
0.644,0.63225,0.68375,0.6125,0.7332500000000001,0.55175,0.9229999999999999,0.858,0.8454999999999999,0.7945,0.7802500000000001,0.7879999999999999,0.47295682230944985,0.49041537289823656,0.5950202120803796,0.5031973532935751,0.24187799274411587,0.34848830840249917,0.5876462935537995,0.004134704448859873
0.6435,0.6315,0.68375,0.6125,0.733,0.552,0.9245,0.8582500000000001,0.84575,0.79425,0.7809999999999999,0.7895,0.47884468920264806,0.49428789032749426,0.5759329779131759,0.48715545793387927,0.19886072245047587,0.35288487543609853,0.5912076527326646,0.004326257906081364
0.643,0.63075,0.68375,0.6125,0.73275,0.55225,0.9259999999999999,0.8584999999999999,0.846,0.794,0.78175,0.7909999999999999,0.4806842814458961,0.5021676723885407,0.5784287304470092,0.4706357961967928,0.20926130894693112,0.3506893870867347,0.5929905241748429,0.004885660287723708
0.6425,0.63,0.68375,0.6125,0.7325,0.5525,0.9275,0.85875,0.84625,0.79375,0.7825,0.7925,0.48046751420704203,0.5086296795360009,0.5848438690022848,0.4833884608001333,0.2138735859735269,0.3032405734202983,0.5751862332550832,0.019904535419943803
0.6425,0.63,0.68375,0.6125,0.7325,0.5525,0.9275,0.85875,0.84625,0.79375,0.7825,0.7925,0.4800867068955416,0.510750483332357,0.5810826644794657,0.5134141866966391,0.21391033626888117,0.35769201908933335,0.6012997384710774,0.019732530337020642
0.6425,0.63,0.68375,0.6125,0.7325,0.5525,0.9275,0.85875,0.84625,0.79375,0.7825,0.7925,0.480110141191634,0.5097369500263635,0.5789267092389713,0.5401690558348704,0.21866961447689415,0.35155807722418914,0.6315778817848131,0.019911106033300985
0.6417499999999999,0.62925,0.6835,0.6114999999999999,0.73175,0.551,0.927,0.8584999999999999,0.84625,0.79425,0.78325,0.7935,0.4833264983303064,0.5074872576014998,0.5801745855058879,0.5574421171280357,0.2265343662165093,0.35155807722418914,0.6315778817848131,0.019911106033300985
0.6409999999999999,0.6285000000000001,0.68325,0.6104999999999999,0.731,0.5495,0.9265000000000001,0.8582500000000001,0.84625,0.79475,0.784,0.7945,0.4870877028531255,0.5032456500087878,0.5826234694475365,0.5631018010311787,0.23713708393579847,0.3572506820194935,0.6167460894639437,0.03923827678911688
0.6402500000000001,0.62775,0.6829999999999999,0.6095,0.7302500000000001,0.5479999999999999,0.9259999999999999,0.858,0.84625,0.79525,0.78475,0.7955,0.4893725467221278,0.4996660612806843,0.5820024606010897,0.5527195885328042,0.2538221272829374,0.3524099854703005,0.6143718524672243,0.043358948056718
0.6395000000000001,0.627,0.6827500000000001,0.6085,0.7295,0.5465,0.9255,0.85775,0.84625,0.7957500000000001,0.7855,0.7965000000000001,0.4920909250688382,0.4958814224617728,0.5819321577128127,0.5440646818763473,0.2740904094972475,0.3524099854703005,0.6143718524672243,0.043358948056718
0.63875,0.62625,0.6825,0.6075,0.72875,0.545,0.925,0.8575,0.84625,0.79625,0.78625,0.7975,0.49331536703966256,0.49591071533188824,0.5802390298201417,0.5336824693779727,0.2928335199664649,0.35194069128273825,0.610215362904396,0.05047419028011099
0.63875,0.62625,0.6825,0.6075,0.72875,0.545,0.925,0.8575,0.84625,0.79625,0.78625,0.7975,0.4941707188470326,0.4970121272482278,0.5844454859687153,0.5272693856313518,0.3096288164988593,0.35194069128273825,0.610215362904396,0.05047419028011099
0.63875,0.62625,0.6825,0.6075,0.72875,0.545,0.925,0.8575,0.84625,0.79625,0.78625,0.7975,0.49661374421465815,0.5069892788095378,0.5896068896830511,0.5164645346774352,0.3349320133331102,0.352803785641957,0.604873637257919,0.05611059911314561
0.63875,0.62625,0.6825,0.6075,0.72875,0.545,0.925,0.8575,0.84625,0.79625,0.78625,0.7975,0.49723475306110493,0.5090866483098014,0.5890737594469506,0.5052186695455011,0.36016170612786347,0.3768842429171968,0.5752182011510933,0.11200782919557081
0.638,0.6245,0.6815000000000001,0.606,0.72725,0.5425,0.9229999999999999,0.8552500000000001,0.8454999999999999,0.79675,0.78425,0.79625,0.4971351573027125,0.5087116995723241,0.5883472962680883,0.4966923928026717,0.3875413463814662,0.4326512897983057,0.5693145802390912,0.158717880089052
0.63725,0.62275,0.6805,0.6045,0.72575,0.54,0.9209999999999999,0.853,0.8447499999999999,0.7972499999999999,0.7822499999999999,0.795,0.49677778428730446,0.5084363465932392,0.5863143710820786,0.4911980894318346,0.414204336907321,0.4488995736076862,0.5574559127607538,0.17465017827056017
0.6365,0.621,0.6795,0.603,0.72425,0.5375,0.919,0.85075,0.8440000000000001,0.7977500000000001,0.7802500000000001,0.79375,0.4955767766125725,0.5071416017341379,0.577919034507001,0.487008453339598,0.4420984939414434,0.4488995736076862,0.5574559127607538,0.17465017827056017
0.63575,0.61925,0.6785,0.6015,0.72275,0.535,0.917,0.8484999999999999,0.84325,0.79825,0.77825,0.7925,0.4943874860858867,0.49854707364227546,0.5671333997305056,0.49437706746995785,0.46034546249041924,0.5139150810714228,0.6305186385542803,0.22503224018859008
0.635,0.6175,0.6775,0.6,0.72125,0.5325,0.915,0.84625,0.8425,0.79875,0.77625,0.79125,0.49400082020036323,0.49768000468685925,0.5642685570332181,0.5030135978291413,0.4739617795836199,0.554316518282831,0.6305468416208687,0.2615646621132147
0.63375,0.6164999999999999,0.67625,0.59875,0.72,0.53225,0.91175,0.843,0.8390000000000001,0.79,0.77325,0.77,0.4939070830159939,0.4993848497275763,0.5610580584685687,0.5068724731082404,0.48178978347077295,0.5788802537478582,0.6050403727855999,0.29583629198485717
0.6325,0.6154999999999999,0.675,0.5975,0.71875,0.532,0.9085,0.83975,0.8355,0.78125,0.7702500000000001,0.74875,0.4937781943874861,0.49991212138965374,0.5601968480871756,0.5092796762270584,0.48632855602677255,0.5788802537478582,0.6050403727855999,0.29583629198485717
0.63125,0.6145,0.67375,0.59625,0.7175,0.53175,0.9052500000000001,0.8365,0.8320000000000001,0.7725,0.76725,0.7275,0.4937078914992091,0.5003280801452926,0.5596402835549827,0.5104373388036032,0.4886071299504607,0.6509929934378886,0.5707536660247523,0.5178146871068944
0.63,0.6135,0.6725,0.595,0.71625,0.5315,0.902,0.83325,0.8284999999999999,0.76375,0.76425,0.70625,0.493491124260355,0.5006971703087468,0.5593649305758979,0.5092245495985058,0.4887725103031421,0.6509929934378886,0.5707536660247523,0.5178146871068944
0.62875,0.6125,0.67125,0.59375,0.715,0.53125,0.89875,0.83,0.825,0.755,0.76125,0.685,0.4935086999824243,0.5006210088464468,0.5593414962798055,0.5078831309827292,0.48871738342311527,0.6821683586229759,0.5618693832438023,0.5421635335189837
0.62875,0.6125,0.67125,0.59375,0.715,0.53125,0.89875,0.83,0.825,0.755,0.76125,0.685,0.49352627570449353,0.5006795945866777,0.559300486261644,0.5065784636682037,0.4887908858819179,0.7800966006599808,0.5286889395596128,0.619907484437253
0.62875,0.6125,0.67125,0.59375,0.715,0.53125,0.89875,0.83,0.825,0.755,0.76125,0.685,0.4935965785927705,0.5007147460308161,0.5594000820200363,0.5052186695455011,0.4888643883407205,0.7800966006599808,0.5286889395596128,0.619907484437253
0.62875,0.6125,0.67125,0.59375,0.715,0.53125,0.89875,0.83,0.825,0.755,0.76125,0.685,0.49362001288886287,0.5007850489190931,0.559089577596813,0.5039323778097514,0.48880926146069364,0.8064424499656184,0.5174316722692266,0.6427567313831295
0.62775,0.61175,0.6707500000000001,0.59275,0.7140000000000001,0.53075,0.8985,0.828,0.823,0.7517499999999999,0.75875,0.6745,0.4936961743511629,0.5005799988282852,0.5592243247993438,0.5026460859841895,0.4887357591455906,0.8064424499656184,0.5174316722692266,0.6427567313831295
0.6267499999999999,0.611,0.67025,0.59175,0.713,0.53025,0.89825,0.826,0.821,0.7484999999999999,0.75625,0.664,0.4937078914992091,0.5005389888101236,0.559376647723944,0.5018375597097458,0.48890113964197157,0.8700920214299801,0.5008640062495876,0.7154034084632135
0.62575,0.61025,0.66975,0.59075,0.7120000000000001,0.52975,0.898,0.8240000000000001,0.8190000000000001,0.7452500000000001,0.75375,0.6535,0.4938016286835784,0.5005038373659851,0.5594703849083134,0.5010106578385639,0.48921352476855867,0.8823710912733758,0.4955385776729364,0.7369367677811293
0.62475,0.6095,0.66925,0.58975,0.711,0.52925,0.89775,0.8220000000000001,0.8170000000000001,0.742,0.75125,0.643,0.4938719315718554,0.5004569687738004,0.559511394926475,0.5003675119527267,0.48972804140537873,0.8823710912733758,0.4955385776729364,0.7369367677811293
0.62375,0.60875,0.66875,0.58875,0.71,0.52875,0.8975,0.82,0.815,0.73875,0.74875,0.6325,0.49415900169898647,0.5003925244595465,0.5599625051262522,0.49990812201630896,0.49070194808639117,0.9134905258929262,0.48726947980762486,0.7945796192409279
0.62375,0.60875,0.66875,0.58875,0.71,0.52875,0.8975,0.82,0.815,0.73875,0.74875,0.6325,0.49436405178979437,0.5005565645321929,0.5600035151444138,0.49966923925871226,0.4917677326612824,0.9097026031663777,0.4962878745063148,0.957403285735954
0.62375,0.60875,0.66875,0.58875,0.71,0.52875,0.8975,0.82,0.815,0.73875,0.74875,0.6325,0.4945456675845099,0.5006620188646084,0.5599332122561369,0.4993201029206863,0.4930356487464066,0.9097026031663777,0.4962878745063148,0.957403285735954
0.62375,0.60875,0.66875,0.58875,0.71,0.52875,0.8975,0.82,0.815,0.73875,0.74875,0.6325,0.4946452633429023,0.5007498974749546,0.5599625051262522,0.4990260933728749,0.49435869171155766,0.9022222833088633,0.4974787541503102,0.9601910570898479
0.62375,0.60875,0.669,0.5885,0.71025,0.5295000000000001,0.89725,0.82,0.8125,0.73925,0.74675,0.629,0.4946862733610639,0.5007850489190931,0.5598336164977444,0.49825431832783257,0.4958654906979781,0.8890353800971832,0.496887388595769,0.961455487350791
0.62375,0.60875,0.66925,0.58825,0.7105,0.53025,0.897,0.82,0.81,0.7397499999999999,0.7447499999999999,0.6255,0.49453980901048683,0.5007264631788623,0.559663717851075,0.4978684307783678,0.49715178246965275,0.8890353800971832,0.496887388595769,0.961455487350791
0.62375,0.60875,0.6695,0.588,0.71075,0.531,0.8967499999999999,0.82,0.8075,0.7402500000000001,0.74275,0.622,0.4944226375300252,0.5005917159763313,0.5595465463706134,0.4976295480028086,0.4982175670984313,0.8828790660058242,0.49688550986484425,0.9584467079026215
0.62375,0.60875,0.66975,0.58775,0.711,0.53175,0.8965000000000001,0.82,0.805,0.74075,0.74075,0.6185,0.49428789032749426,0.5004569687738004,0.5594528091862441,0.49779492837345246,0.49887908859896923,0.8828790660058242,0.49688550986484425,0.9584467079026215
0.62375,0.60875,0.67,0.5875,0.71125,0.5325,0.89625,0.82,0.8025,0.74125,0.73875,0.615,0.49412385025484795,0.5002694944050619,0.5593590720018747,0.4986769570168865,0.499081220181052,0.8613739186927436,0.4950875938401233,0.9367049948734292
0.62375,0.60875,0.67,0.5875,0.71125,0.5325,0.89625,0.82,0.8025,0.74125,0.73875,0.615,0.49406526451461713,0.5001757572206925,0.5594117991680825,0.5003675119168017,0.49876883503650243,0.8613739186927436,0.4950875938401233,0.9367049948734292
0.62425,0.60925,0.67,0.588,0.7115,0.53275,0.89575,0.8192499999999999,0.8035,0.7397499999999999,0.73775,0.615,0.4941765774210557,0.5001113129064386,0.5594176577421056,0.5021131935530443,0.49825431832783257,0.8468686000497797,0.4855799776086219,0.9271488829109167
0.62475,0.60975,0.67,0.5885,0.71175,0.5329999999999999,0.8952500000000001,0.8184999999999999,0.8045,0.7382500000000001,0.73675,0.615,0.49413556740289416,0.500140605776554,0.559382506297967,0.5040242556856678,0.49761117244199526,0.8156932403080565,0.47189708450504453,0.8923037167909332
0.62525,0.61025,0.67,0.589,0.7120000000000001,0.53325,0.8947499999999999,0.8177500000000001,0.8055,0.73675,0.73575,0.615,0.49424102173530965,0.5001523229246001,0.5593707891499209,0.5057883130264231,0.49693127536268156,0.6756037922284276,0.4284716263851655,0.7769147153480943
0.62575,0.61075,0.67,0.5895,0.7122499999999999,0.5335,0.89425,0.8170000000000001,0.8065000000000001,0.7352500000000001,0.7347499999999999,0.615,0.4943230417716328,0.5002284843869003,0.5594410920381979,0.5072767363801806,0.4963800074246104,0.6716457643755503,0.4290617394524235,0.7707390850491854
0.62625,0.61125,0.67,0.59,0.7125,0.53375,0.89375,0.81625,0.8075,0.73375,0.73375,0.615,0.4943523346417482,0.5003280801452926,0.5593590720018747,0.5086732816604347,0.4957919883289877,0.6716457643755503,0.4290617394524235,0.7707390850491854
0.62625,0.61125,0.67,0.59,0.7125,0.53375,0.89375,0.81625,0.8075,0.73375,0.73375,0.615,0.49426445603140196,0.5003925244595465,0.559376647723944,0.5101617051219667,0.49481808175575,0.6536489196215175,0.42905672213571844,0.7540555526631852
0.6265,0.61175,0.67025,0.5902499999999999,0.713,0.53425,0.8925,0.8165,0.8059999999999999,0.733,0.7332500000000001,0.6145,0.4942761731794481,0.5004393930517312,0.5595348292225673,0.5128445422098202,0.4927232636198195,0.6536489196215175,0.42905672213571844,0.7540555526631852
0.6267499999999999,0.61225,0.6705,0.5905,0.7134999999999999,0.5347500000000001,0.89125,0.81675,0.8045,0.73225,0.73275,0.614,0.4942527388833558,0.5006268674204699,0.5596461421290058,0.5156192571915528,0.4905365675900102,0.6475037916432659,0.4254934842259285,0.7519942646635763
0.627,0.61275,0.6707500000000001,0.59075,0.7140000000000001,0.53525,0.89,0.8170000000000001,0.8029999999999999,0.7315,0.73225,0.6135,0.4942761731794481,0.5007850489190931,0.5596402835549827,0.518210216241828,0.4884049983683779,0.646188179544464,0.4213401332488805,0.7482357458935645
0.62725,0.6132500000000001,0.6709999999999999,0.591,0.7145,0.5357500000000001,0.88875,0.8172499999999999,0.8015000000000001,0.73075,0.73175,0.613,0.4943757689378405,0.5008729275294393,0.5597340207393521,0.520709297541924,0.48618155110916733,0.6444284324867043,0.4225285005507372,0.7486111805774839
0.6275,0.61375,0.67125,0.59125,0.715,0.53625,0.8875,0.8175,0.8,0.73,0.73125,0.6125,0.49450465756634837,0.5011365633604781,0.5598394750717676,0.5227857398116795,0.4842888644834698,0.6400346633422228,0.41837577581733076,0.7474766558556879
0.6275,0.61375,0.67125,0.59125,0.715,0.53625,0.8875,0.8175,0.8,0.73,0.73125,0.6125,0.49470384908313314,0.5014060577655398,0.5597340207393521,0.5232818808697239,0.4838846014630039,0.6422245559133509,0.4154095470224286,0.7484128361834721
0.6275,0.61375,0.67125,0.59125,0.715,0.53625,0.8875,0.8175,0.8,0.73,0.73125,0.6125,0.49492061632198725,0.5016111078563478,0.5596871521471674,0.5234840123799569,0.48386622602792767,0.6373894496990297,0.41422744215698787,0.7515928365526677
0.6285000000000001,0.61475,0.67125,0.5925,0.71525,0.53675,0.88725,0.8172499999999999,0.8005,0.7302500000000001,0.732,0.61175,0.4951022321167028,0.5018161579471556,0.5596051321108442,0.5236677684551136,0.48386622602792767,0.6364732281067558,0.44394680668826164,0.7749246155081277
0.6295000000000001,0.61575,0.67125,0.59375,0.7155,0.53725,0.887,0.8170000000000001,0.8009999999999999,0.7304999999999999,0.73275,0.611,0.49514910070888746,0.5020915109262406,0.5594938192044057,0.5234105100648538,0.4843807428084473,0.634716278938114,0.44573406920350317,0.7767969477348657
0.6305,0.61675,0.67125,0.595,0.71575,0.53775,0.8867499999999999,0.81675,0.8015000000000001,0.73075,0.7334999999999999,0.61025,0.4952721307633722,0.5022438338508407,0.5592594762434824,0.5227122374965765,0.48520764485925355,0.6395485872633175,0.46414852772219634,0.7818226460705984
0.6315,0.61775,0.67125,0.59625,0.716,0.53825,0.8865000000000001,0.8165,0.802,0.731,0.73425,0.6095,0.49521354502314135,0.5023024195910716,0.5592711933915285,0.5220507160858507,0.48585079083490307,0.6395485872633175,0.46414852772219634,0.7818226460705984
0.6325,0.61875,0.67125,0.5975,0.71625,0.53875,0.88625,0.81625,0.8025,0.73125,0.735,0.60875,0.495260413615326,0.5024313082195794,0.5592477590954361,0.5217199553804879,0.48627342929044526,0.6430680759354728,0.465930772920733,0.7833174434335932
0.6325,0.61875,0.67125,0.5975,0.71625,0.53875,0.88625,0.81625,0.8025,0.73125,0.735,0.60875,0.4953482922256723,0.5025719139961333,0.5592536176694592,0.5210216828122106,0.4870084531599736,0.6479143682629014,0.48968884318440015,0.7874283730887464
0.6325,0.61875,0.67125,0.5975,0.71625,0.53875,0.88625,0.81625,0.8025,0.73125,0.735,0.60875,0.49549475657624936,0.5027476712168258,0.5592829105395747,0.5202866587989827,0.48748621863924213,0.6479143682629014,0.48968884318440015,0.7874283730887464
0.63275,0.61925,0.6715000000000001,0.59775,0.7165,0.53875,0.88625,0.8170000000000001,0.802,0.73175,0.73375,0.60775,0.4955943523346418,0.502970297029703,0.5592770519655516,0.5194046301555486,0.48825799366632205,0.6483473116653877,0.4879109816913547,0.7913565859147011
0.633,0.61975,0.67175,0.598,0.71675,0.53875,0.88625,0.8177500000000001,0.8015000000000001,0.73225,0.7325,0.60675,0.49591071533188824,0.5032632257308571,0.5591540219110669,0.5180448358891465,0.4894524072926436,0.6505344117907621,0.49623210935192413,0.7994061120260034
0.63325,0.62025,0.672,0.5982500000000001,0.7170000000000001,0.53875,0.88625,0.8184999999999999,0.8009999999999999,0.73275,0.73125,0.60575,0.4959458667760267,0.5033511043412033,0.5591130118929053,0.5159500178969156,0.49081220155904576,0.6575622084653293,0.5045469598409331,0.8023987616666944
0.6335000000000001,0.62075,0.6722499999999999,0.5985,0.7172499999999999,0.53875,0.88625,0.8192499999999999,0.8005,0.7332500000000001,0.73,0.60475,0.49597515964614214,0.5034272658035034,0.5590778604487667,0.5142410872026753,0.49184123497638543,0.6579979497569334,0.5051433427121793,0.803514502039001
0.63375,0.62125,0.6725,0.59875,0.7175,0.53875,0.88625,0.82,0.8,0.73375,0.72875,0.60375,0.49596930107211906,0.5034038315074111,0.5590778604487667,0.5128445419224212,0.4929805220100793,0.6597437128124679,0.5098974455308202,0.8076321432671272
0.63375,0.62125,0.6725,0.59875,0.7175,0.53875,0.88625,0.82,0.8,0.73375,0.72875,0.60375,0.49613919971878845,0.5034448415255727,0.5591540219110669,0.5118155085050815,0.49377067261593494,0.6658916386798374,0.5164394592110608,0.8149336274946513
0.63375,0.62125,0.6725,0.59875,0.7175,0.53875,0.88625,0.82,0.8,0.73375,0.72875,0.60375,0.49622121975511163,0.5035034272658035,0.559025133282559,0.5106210947350603,0.4948732084920773,0.7256838355358319,0.5776522849372322,0.8714964925741336
0.63375,0.62125,0.6725,0.59875,0.7175,0.53875,0.88625,0.82,0.8,0.73375,0.72875,0.60375,0.49637354267971173,0.503755345948796,0.5589196789501435,0.5087284083249122,0.49671076816589815,0.7314016104464689,0.5806241646600532,0.8750537991918973
0.63375,0.6214999999999999,0.6725,0.5985,0.7175,0.53875,0.885,0.8195,0.8005,0.73425,0.7284999999999999,0.6035,0.4964555627160349,0.5038725174292578,0.5589372546722128,0.5061374492387121,0.49902609339083737,0.7314016104464689,0.5806241646600532,0.8750537991918973
0.63375,0.62175,0.6725,0.5982500000000001,0.7175,0.53875,0.88375,0.8190000000000001,0.8009999999999999,0.7347499999999999,0.7282500000000001,0.6032500000000001,0.4965258656043119,0.5039193860214424,0.5589841232643974,0.5031606026030471,0.5014700476672069,0.8295283991869247,0.6192547625515823,0.9043932817159278
0.63375,0.622,0.6725,0.5975,0.7172499999999999,0.539,0.8835,0.8192499999999999,0.8007500000000001,0.7347499999999999,0.728,0.6025,0.49637354267971173,0.5040541332239733,0.5589431132462359,0.4994119809403022,0.5046122746555534,0.8762315536299959,0.6714886690312006,0.8955467936269159
0.63375,0.62225,0.6725,0.59675,0.7170000000000001,0.53925,0.88325,0.8195,0.8005,0.7347499999999999,0.72775,0.60175,0.4961860683109731,0.5041185775382272,0.559089577596813,0.4963432564107584,0.5070194777743714,0.8762315536299959,0.6714886690312006,0.8955467936269159
0.63375,0.6225,0.6725,0.596,0.71675,0.5395,0.883,0.81975,0.80025,0.7347499999999999,0.7275,0.601,0.49597515964614214,0.5038373659851192,0.559165739059113,0.493660419251055,0.5089121641845196,0.8982842979223906,0.6964069108977085,0.877110645186803
0.63375,0.6225,0.6725,0.5954999999999999,0.7165,0.5397500000000001,0.884,0.8205,0.7995,0.73425,0.7275,0.6004999999999999,0.49572324096314957,0.5034272658035034,0.5596812935731443,0.48963616365519946,0.5140022042474918,0.9062227258543598,0.6999638790035102,0.8702229520576779
0.63275,0.62075,0.6715000000000001,0.594,0.7155,0.53875,0.8845000000000001,0.8215,0.8007500000000001,0.73375,0.7284999999999999,0.60425,0.49579354385142654,0.5031577713984416,0.5609291698400609,0.49077545061704353,0.5208195507271794,0.9141611537863295,0.696396250020657,0.8640903274715045
0.6317499999999999,0.619,0.6705,0.593,0.71475,0.5375,0.884,0.82175,0.8027500000000001,0.73375,0.7295,0.6085,0.49591071533188824,0.5027008026246411,0.5622942175874392,0.49285189295864895,0.5267732441422089,0.9300408020960219,0.6839111252411324,0.8456469130962315
0.63075,0.61725,0.6695,0.5920000000000001,0.7140000000000001,0.53625,0.8835,0.8220000000000001,0.80475,0.73375,0.7304999999999999,0.61275,0.4955357665944109,0.5013123205811706,0.565112191692542,0.49880558622997884,0.546563762314246,0.9300408020960219,0.6839111252411324,0.8456469130962315
0.62975,0.6145,0.6679999999999999,0.5905,0.71325,0.5329999999999999,0.8855,0.8227500000000001,0.8115000000000001,0.74,0.7375,0.63825,0.49523112074521064,0.5001523229246001,0.567941882945691,0.5055310546720883,0.5660418953596958,0.9512472284771769,0.654774344118273,0.7985006075904333
0.62875,0.61175,0.6665000000000001,0.589,0.7125,0.52975,0.8875,0.8234999999999999,0.81825,0.74625,0.7445,0.66375,0.49565879664889567,0.5014001991915168,0.574169547132228,0.5186144794059935,0.5909775806184313,0.9425239980910124,0.6244253837000319,0.7352572256657222
0.62875,0.61075,0.6659999999999999,0.5885,0.7125,0.5277499999999999,0.89,0.8240000000000001,0.823,0.7525,0.7505,0.685,0.49659030991856584,0.5032749428789033,0.5810885230534888,0.5250826896733923,0.6248070557762065,0.9341805893176431,0.6119383728220104,0.7182740036600034
0.62875,0.60975,0.6655,0.588,0.7125,0.52575,0.8925,0.8245,0.8277500000000001,0.75875,0.7565000000000001,0.70625,0.49667232995488897,0.5059698869295214,0.5889800222625813,0.5313487681431591,0.6678610803887879,0.8757767006872385,0.570289538443038,0.64053835040652
0.62875,0.60875,0.665,0.5875,0.7125,0.52375,0.895,0.825,0.8325,0.765,0.7625,0.7275,0.4972113187650126,0.5075809947858692,0.5961450582928115,0.5304299883421736,0.7174568156439275,0.8757767006872385,0.570289538443038,0.64053835040652
0.62875,0.60875,0.665,0.5875,0.7125,0.52375,0.895,0.825,0.8325,0.765,0.7625,0.7275,0.4977503075751362,0.5091921026422169,0.6033100943230418,0.529511208541188,0.7670525508990671,0.8349115541797757,0.5500740253138439,0.6100555752356764
0.62875,0.60875,0.665,0.5875,0.7125,0.52375,0.895,0.825,0.8325,0.765,0.7625,0.7275,0.49630909836545783,0.5106098775558029,0.6075282676196614,0.5175670708409766,0.8139470727690796,0.8349115541797757,0.5500740253138439,0.6100555752356764
0.62875,0.60875,0.665,0.5875,0.7125,0.52375,0.895,0.825,0.8325,0.765,0.7625,0.7275,0.49292870115413906,0.5102056359482102,0.6093737184369324,0.5055310548157878,0.855237036646004,0.7320699085800618,0.4793316427259986,0.5375000907353494
0.6305,0.6104999999999999,0.6655,0.5895,0.7142499999999999,0.52475,0.90275,0.8292499999999999,0.8375,0.7715000000000001,0.76775,0.73875,0.4904095143242135,0.5115824008436347,0.6103696760208566,0.48634693218034647,0.8906651858639749,0.7320699085800618,0.4793316427259986,0.5375000907353494
0.63225,0.61225,0.6659999999999999,0.5915,0.716,0.52575,0.9105,0.8334999999999999,0.8425,0.778,0.773,0.75,0.48835315484211145,0.5147167379459839,0.6136680531958522,0.47258361060063925,0.9013597793216499,0.7039419454338137,0.4620905069266195,0.5159912548369997
0.634,0.614,0.6665000000000001,0.5935,0.7177500000000001,0.5267499999999999,0.91825,0.8377500000000001,0.8475,0.7845,0.77825,0.76125,0.48325033686800634,0.5158064327142774,0.6094381627511863,0.46052921914037415,0.9092980362503589,0.6859506910146527,0.4507881132561775,0.49522115156510477
0.63575,0.61575,0.667,0.5954999999999999,0.7195,0.5277499999999999,0.9259999999999999,0.8420000000000001,0.8525,0.7909999999999999,0.7835,0.7725,0.47731560138262347,0.5158181498623235,0.6041185775382272,0.45457552558164516,0.9048695198973051,0.5682826336138345,0.5747446799147552,0.3743171323937631
0.6375,0.6175,0.6675,0.5975,0.72125,0.52875,0.93375,0.84625,0.8575,0.7975,0.78875,0.78375,0.47435702150096665,0.5160817856933623,0.5955592008905033,0.4504042653196586,0.8835538289742786,0.5445736097274004,0.5937248132635399,0.34504294970794025
0.6375,0.6175,0.6675,0.5975,0.72125,0.52875,0.93375,0.84625,0.8575,0.7975,0.78875,0.78375,0.47103521002987875,0.512601792723651,0.5839475071767531,0.45082690406259984,0.8435501530250662,0.5243896648479934,0.6115140596007569,0.314654131820581
0.6375,0.6175,0.6675,0.5975,0.72125,0.52875,0.93375,0.84625,0.8575,0.7975,0.78875,0.78375,0.457109379577011,0.5073525103989689,0.562985529322163,0.4471334085613841,0.8016905457749943,0.4050597429616282,0.6713824507420144,0.1286480680269306
0.638,0.61875,0.66975,0.5985,0.72275,0.53125,0.9345,0.84875,0.85725,0.7977500000000001,0.7885,0.7825,0.44623000761614623,0.5041478704083426,0.5495518190872342,0.44173098294072627,0.7625872750538885,0.39409628521703444,0.6612834763235441,0.1027376567752849
0.6385000000000001,0.62,0.672,0.5995,0.72425,0.53375,0.93525,0.85125,0.857,0.7979999999999999,0.78825,0.78125,0.44441970824301363,0.5023844396273947,0.543318296326674,0.4331679548966458,0.710786466896868,0.39409628521703444,0.6612834763235441,0.1027376567752849
0.639,0.62125,0.67425,0.6004999999999999,0.72575,0.53625,0.9359999999999999,0.85375,0.85675,0.79825,0.7879999999999999,0.78,0.44023668639053254,0.5015115120979553,0.53990860624524,0.4285005530018167,0.6501837480279824,0.3778591875207613,0.6725526496106928,0.08170129263426645
0.6395000000000001,0.6225,0.6765000000000001,0.6015,0.72725,0.53875,0.93675,0.85625,0.8565,0.7985,0.7877500000000001,0.77875,0.43516901986056594,0.49900404241607593,0.534395688089519,0.4241822875348259,0.5921903668058384,0.3559574421469063,0.6185158024220763,0.012780511057118728
0.64,0.62375,0.67875,0.6025,0.72875,0.54125,0.9375,0.85875,0.85625,0.79875,0.7875,0.7775,0.4401605249282325,0.4981252563126135,0.5339855879079032,0.41901874458195254,0.5408857025808529,0.35595464425778844,0.6107954487058164,0.005450340955488069
0.64,0.62375,0.67875,0.6025,0.72875,0.54125,0.9375,0.85875,0.85625,0.79875,0.7875,0.7775,0.445152029995899,0.4972464702091511,0.5335754877262874,0.4138552016290792,0.4895810383558676,0.35595464425778844,0.6107954487058164,0.005450340955488069
0.64,0.62375,0.67875,0.6025,0.72875,0.54125,0.9375,0.85875,0.85625,0.79875,0.7875,0.7775,0.4467865721483391,0.4951666764309567,0.5241138906790087,0.40944505927410624,0.4620543934720586,0.34981510661440857,0.5906144084471987,0.0030042663713909868
0.6402500000000001,0.624,0.67875,0.6025,0.7297499999999999,0.5425,0.93875,0.85875,0.85675,0.79925,0.7877500000000001,0.77825,0.4489542445368797,0.4931044583748316,0.5159353213427852,0.40117604164003434,0.45496141287963576,0.34981510661440857,0.5906144084471987,0.0030042663713909868
0.6405,0.62425,0.67875,0.6025,0.73075,0.54375,0.94,0.85875,0.85725,0.79975,0.7879999999999999,0.779,0.45415079969535416,0.49434061749370206,0.5121916925420352,0.39775818140115005,0.4637633233041017,0.3506809988627452,0.5912070264890231,0.002262031076160693
0.64075,0.6245,0.67875,0.6025,0.73175,0.545,0.94125,0.85875,0.85775,0.80025,0.78825,0.7797499999999999,0.4609994727283379,0.49613334114476537,0.5093620012888863,0.4005145213789049,0.4756339585455105,0.3506809988627452,0.5912070264890231,0.002262031076160693
0.6409999999999999,0.62475,0.67875,0.6025,0.73275,0.54625,0.9425,0.85875,0.8582500000000001,0.8007500000000001,0.7885,0.7805,0.4693362235631847,0.49817798347882125,0.5066319057941298,0.40630283429755343,0.48932377781011466,0.35288767332521637,0.5929905241748429,0.0018858833024195474
0.64125,0.625,0.67875,0.6025,0.73375,0.5475,0.94375,0.85875,0.85875,0.80125,0.78875,0.78125,0.4747612631085594,0.49909777960044527,0.5058937254672213,0.4194781364942389,0.4986953324699252,0.35288767332521637,0.5929905241748429,0.0018858833024195474
0.64125,0.625,0.67875,0.6025,0.73375,0.5475,0.94375,0.85875,0.85875,0.80125,0.78875,0.78125,0.48071357431601147,0.4998769699455153,0.5053371609350285,0.4368798258329377,0.5081771406023903,0.348929645472339,0.5900211567941605,0.0033837486099961168
0.64125,0.625,0.67875,0.6025,0.73375,0.5475,0.94375,0.85875,0.85875,0.80125,0.78875,0.78125,0.4854765949967778,0.49957232409631497,0.5057121096725057,0.4551451680925953,0.5140022046785904,0.35331782428194886,0.5918027831166277,0.0026273048223882053
0.64125,0.625,0.67875,0.6025,0.73375,0.5475,0.94375,0.85875,0.85875,0.80125,0.78875,0.78125,0.48915577948327377,0.49869353799285254,0.5066494815161989,0.4723814777971104,0.5150128625171543,0.3506754085278735,0.592988645443918,0.0031925588048929915
0.64125,0.6255,0.679,0.6022500000000001,0.73375,0.5475,0.94325,0.85925,0.85875,0.8015000000000001,0.789,0.78125,0.4915343605366454,0.4971996016169664,0.5075809947858692,0.4871554580775788,0.5132304297233602,0.3506754085278735,0.592988645443918,0.0031925588048929915
0.64125,0.626,0.67925,0.602,0.73375,0.5475,0.9427500000000001,0.8597499999999999,0.85875,0.80175,0.78925,0.78125,0.4935790028707013,0.49517253500497976,0.5085886695178393,0.49792355758654483,0.5079566332978322,0.3524435438096227,0.5918046618475524,0.0018788981019567403
0.64125,0.6265,0.6795,0.60175,0.73375,0.5475,0.9422499999999999,0.8602500000000001,0.85875,0.802,0.7895,0.78125,0.4951783935790029,0.4930165797644853,0.5095084656394634,0.5044468943747217,0.49996324862689917,0.3524435438096227,0.5918046618475524,0.0018788981019567403
0.64125,0.627,0.67975,0.6015,0.73375,0.5475,0.94175,0.86075,0.85875,0.8022499999999999,0.78975,0.78125,0.4960220282383268,0.4916163805729685,0.5103696760208565,0.5080301358284847,0.4902425581140486,0.34891845935923166,0.589428538752336,0.0016931121436420727
0.64125,0.6275,0.68,0.60125,0.73375,0.5475,0.94125,0.86125,0.85875,0.8025,0.79,0.78125,0.4964145526978733,0.4906321401370906,0.5109731091452341,0.5093164276360842,0.48178978368632225,0.34891845935923166,0.589428538752336,0.0016931121436420727
0.64125,0.6275,0.68,0.60125,0.73375,0.5475,0.94125,0.86125,0.85875,0.8025,0.79,0.78125,0.496461421290058,0.48965375827523583,0.5116468451578886,0.5132671809527615,0.47104005910948404,0.3519938185157933,0.5912107839508727,0.004323963462585294
0.64125,0.6275,0.68,0.60125,0.73375,0.5475,0.94125,0.86125,0.85875,0.8025,0.79,0.78125,0.4960220282383268,0.48888628507821197,0.5123088640224969,0.5179345825601915,0.46205439203506327,0.3519938185157933,0.5912107839508727,0.004323963462585294
0.64125,0.6275,0.68,0.60125,0.73375,0.5475,0.94125,0.86125,0.85875,0.8025,0.79,0.78125,0.49512566641279515,0.48766770168141077,0.5132110844220517,0.5243844170332652,0.45338110994353,0.3520050046289007,0.5918040356039109,0.0028210307160432147
0.6415000000000001,0.62825,0.6807500000000001,0.60125,0.73375,0.5475,0.941,0.86175,0.858,0.8025,0.78975,0.7815000000000001,0.4941472845509403,0.485845685160232,0.5140957290995372,0.529511208253789,0.44568173453300913,0.3520050046289007,0.5918040356039109,0.0028210307160432147
0.6417499999999999,0.629,0.6815000000000001,0.60125,0.73375,0.5475,0.94075,0.86225,0.85725,0.8025,0.7895,0.78175,0.49307516550471614,0.48385376999238383,0.5155427968832387,0.5325799329270323,0.43658581456073187,0.35155807722418914,0.5882426764250457,0.0037575758804802213
0.642,0.62975,0.6822499999999999,0.60125,0.73375,0.5475,0.9405,0.86275,0.8565,0.8025,0.78925,0.782,0.49205577362469977,0.48246528794891325,0.5176050149393637,0.5305953684074559,0.42921720100517025,0.34978994194243995,0.5959592653118837,0.003010886735200746
0.64225,0.6305,0.6829999999999999,0.60125,0.73375,0.5475,0.94025,0.8632500000000001,0.85575,0.8025,0.789,0.7822499999999999,0.4910891089108911,0.48172124904798175,0.5200011717148046,0.526405732422994,0.42138919726171675,0.34979553227731164,0.5900242953799407,0.004512027280911891
0.6425,0.63125,0.68375,0.60125,0.73375,0.5475,0.94,0.86375,0.855,0.8025,0.78875,0.7825,0.4901986056593825,0.4821899349698283,0.522719550061515,0.5200110246862476,0.41455347563435185,0.35199661640491114,0.5918027831166277,0.003384897608546018
0.6425,0.63125,0.68375,0.60125,0.73375,0.5475,0.94,0.86375,0.855,0.8025,0.78875,0.7825,0.48936082957408167,0.4833557912004218,0.5255433827406409,0.5142043363325228,0.407460495041929,0.3506782009736273,0.585275187775288,0.002819295372872481
0.6425,0.63125,0.68375,0.60125,0.73375,0.5475,0.94,0.86375,0.855,0.8025,0.78875,0.7825,0.4880602261409573,0.4852656863319468,0.5287714570273595,0.5099779490468099,0.4003858907467796,0.3493542006508358,0.5906175396654066,0.0028152193893567546
0.6425,0.63125,0.68375,0.60125,0.73375,0.5475,0.94,0.86375,0.855,0.8025,0.78875,0.7825,0.4864491182846095,0.4872341672037026,0.531706602612924,0.5073134875377321,0.3934582910818364,0.3493542006508358,0.5906175396654066,0.0028152193893567546
0.6425,0.63125,0.68375,0.60125,0.73375,0.5475,0.94,0.86375,0.855,0.8025,0.78875,0.7825,0.48429902161813815,0.4892788095377585,0.5347413439568809,0.5058066884974243,0.38643881222971843,0.3502340714580336,0.5929930365169814,0.0035731900420480226
0.64275,0.63125,0.68375,0.60125,0.73375,0.5479999999999999,0.94,0.86275,0.85575,0.8027500000000001,0.78875,0.7829999999999999,0.48209033921143596,0.4911184017810065,0.5373132579530142,0.50466740160743,0.380099232235196,0.34759725148219395,0.5912114175620865,0.0020642351216628193
0.643,0.63125,0.68375,0.60125,0.73375,0.5485,0.94,0.86175,0.8565,0.8029999999999999,0.78875,0.7835,0.47962973812174114,0.49296971117230065,0.5398500205050091,0.5036751193835667,0.37467843261645734,0.35155248144595347,0.5888346682232284,0.0030093219650106154
0.64325,0.63125,0.68375,0.60125,0.73375,0.5489999999999999,0.94,0.86075,0.85725,0.80325,0.78875,0.784,0.47721600562423105,0.4945163747143945,0.5417306227664187,0.5035832413459883,0.371205444635349,0.35155248144595347,0.5888346682232284,0.0030093219650106154
0.6435,0.63125,0.68375,0.60125,0.73375,0.5495,0.94,0.8597499999999999,0.858,0.8035,0.78875,0.7845,0.4746499502021208,0.49589899818384203,0.5433885992149511,0.5045203967257497,0.37004778044218445,0.3511167401543493,0.5918046618475524,0.0026352992463195405
0.64375,0.63125,0.68375,0.60125,0.73375,0.55,0.94,0.85875,0.85875,0.80375,0.78875,0.785,0.4727810650887574,0.4968949557677661,0.5444841525572676,0.5054208009479594,0.3703417897025967,0.3511167401543493,0.5918046618475524,0.0026352992463195405
0.64375,0.63125,0.68375,0.60125,0.73375,0.55,0.94,0.85875,0.85875,0.80375,0.78875,0.785,0.47075399847677074,0.49747495459605134,0.546001523229246,0.5077177505941228,0.3730981285307552,0.3506782009736273,0.5941788988442719,0.002817725864543935
0.64375,0.63125,0.68375,0.60125,0.73375,0.55,0.94,0.85875,0.85875,0.80375,0.78875,0.785,0.46873279043880717,0.49762141894662837,0.5475833382154783,0.5109518557278223,0.37818816859372734,0.34979833016642947,0.5894297912396192,0.002637594874350214
0.64375,0.63125,0.68375,0.60125,0.73375,0.55,0.94,0.85875,0.85875,0.80375,0.78875,0.785,0.4669927939539516,0.49739879313375124,0.5491885874978031,0.5148107311506208,0.3839581052151023,0.34760004937131184,0.5918059143348356,0.004132562810325584
0.6435,0.63125,0.68325,0.60125,0.73425,0.55025,0.93825,0.8582500000000001,0.85875,0.8035,0.78875,0.78475,0.46549885757806553,0.4970121272482278,0.5512215126838128,0.5188166110599259,0.3903344378041717,0.34760004937131184,0.5918059143348356,0.004132562810325584
0.64325,0.63125,0.6827500000000001,0.60125,0.7347499999999999,0.5505,0.9365000000000001,0.85775,0.85875,0.80325,0.78875,0.7845,0.46391118401781006,0.4966606128068428,0.5535122151268381,0.5232451297121723,0.39739066810124024,0.34935979098570746,0.5923979061330185,0.0035706539534960595
0.643,0.63125,0.6822499999999999,0.60125,0.7352500000000001,0.5507500000000001,0.93475,0.85725,0.85875,0.8029999999999999,0.78875,0.78425,0.4627336106391704,0.49644384556798876,0.5558732204581405,0.5269753757961414,0.4036383712077806,0.3467089924510066,0.5900261741108654,0.0022513394669735442
0.64275,0.63125,0.68175,0.60125,0.73575,0.551,0.9329999999999999,0.85675,0.85875,0.8027500000000001,0.78875,0.784,0.46215947038490834,0.496320815513504,0.5583045286777198,0.5303748608873485,0.408416025713067,0.3467089924510066,0.5900261741108654,0.0022513394669735442
0.6425,0.63125,0.68125,0.60125,0.73625,0.55125,0.93125,0.85625,0.85875,0.8025,0.78875,0.78375,0.46181381451754644,0.4963149569394809,0.5614915929462769,0.5332414537629598,0.4115215015438619,0.3502312790122798,0.5906194183963315,0.005259861871137535
0.6425,0.63125,0.68125,0.60125,0.73625,0.55125,0.93125,0.85625,0.85875,0.8025,0.78875,0.78375,0.461995430312262,0.49630323979143476,0.5643212841994258,0.5366225637064899,0.4101433332793789,0.3511195380434672,0.5906187921526898,0.00244389859405983
0.6425,0.63125,0.68125,0.60125,0.73625,0.55125,0.93125,0.85625,0.85875,0.8025,0.78875,0.78375,0.46239381334583163,0.4957818267033804,0.5666940066787745,0.5407938239684764,0.4061925788131052,0.3511195380434672,0.5906187921526898,0.00244389859405983
0.6425,0.63125,0.68125,0.60125,0.73625,0.55125,0.93125,0.85625,0.85875,0.8025,0.78875,0.78375,0.4629562364520476,0.49487960630382566,0.5682582459429375,0.5452039674730457,0.40077177804477027,0.35199661640491114,0.5894329298253995,0.0026265538274597108
0.6425,0.63125,0.68125,0.60125,0.73625,0.55125,0.93125,0.85625,0.85875,0.8025,0.78875,0.78375,0.4631788622649247,0.4935379928525397,0.5693069306930694,0.5491914722346736,0.39582874261200424,0.351560875113307,0.5906187921526898,0.001693715071747124
0.64275,0.6317499999999999,0.68125,0.6015,0.73625,0.55125,0.9309999999999999,0.8565,0.8582500000000001,0.8022499999999999,0.7885,0.784,0.4634249223738942,0.4920381979026305,0.569142890620423,0.5518559341748501,0.39259463844827674,0.35066702030388397,0.5888396781723613,0.0020628646151450553
0.643,0.63225,0.68125,0.60175,0.73625,0.55125,0.9307500000000001,0.85675,0.85775,0.802,0.78825,0.78425,0.4634659323920558,0.4905676958228367,0.568644911828461,0.5530870995335214,0.39231900433554157,0.34936258887482535,0.5906187921526898,0.0037538659181519897
0.64325,0.63275,0.68125,0.602,0.73625,0.55125,0.9305,0.857,0.85725,0.80175,0.7879999999999999,0.7845,0.463266740875271,0.48998183842052845,0.5683402659792607,0.5516905543969668,0.3952591003884532,0.3484799201785097,0.5923972798893768,0.003007163742992186
0.6435,0.63325,0.68125,0.6022500000000001,0.73625,0.55125,0.93025,0.85725,0.85675,0.8015000000000001,0.7877500000000001,0.78475,0.46316714511687856,0.4904095143242135,0.5680531958521295,0.5483645710460646,0.4002021358212192,0.3506726106387556,0.59239853237666,0.004324731040998086
0.64375,0.63375,0.68125,0.6025,0.73625,0.55125,0.93,0.8575,0.85625,0.80125,0.7875,0.785,0.4632257308571094,0.4921788036791845,0.5676899642626985,0.5451120905850636,0.4064130874828089,0.3506726106387556,0.59239853237666,0.004324731040998086
0.64375,0.63375,0.68125,0.6025,0.73625,0.55125,0.93,0.8575,0.85625,0.80125,0.7875,0.785,0.463553811002402,0.4945808190286484,0.5670806725642978,0.5435317887985541,0.41418596463363466,0.35112233593258496,0.5947734029845932,0.002255410712350855
0.64375,0.63375,0.68125,0.6025,0.73625,0.55125,0.93,0.8575,0.85625,0.80125,0.7875,0.785,0.46418067842287186,0.4974456617259359,0.5663307750893433,0.5435869153911819,0.4252480731156139,0.35112233593258496,0.5947734029845932,0.002255410712350855
0.64375,0.63375,0.68125,0.6025,0.73625,0.55125,0.93,0.8575,0.85625,0.80125,0.7875,0.785,0.4752885347706368,0.4966430370847736,0.6008670689554163,0.5588754124521699,0.39933848146326506,0.34979553227731164,0.594180151331555,0.0033850764732687695
0.644,0.634,0.682,0.6025,0.7365,0.551,0.93,0.8575,0.8565,0.8015000000000001,0.789,0.7859999999999999,0.48286952955650597,0.49649071416017343,0.6033628214892495,0.5759463407981068,0.37179346258137536,0.3541948972000288,0.5971482662249543,0.004136650639187113
0.64425,0.63425,0.6827500000000001,0.6025,0.73675,0.5507500000000001,0.93,0.8575,0.85675,0.80175,0.7905,0.787,0.4927880953775851,0.4966254613627043,0.602331712461187,0.5904079349460913,0.3512311688074603,0.35242955980739743,0.5923991586203017,0.005078446845450876
0.6445000000000001,0.6345000000000001,0.6835,0.6025,0.737,0.5505,0.93,0.8575,0.857,0.802,0.792,0.7879999999999999,0.49941414259769173,0.4945632433065792,0.6080379635596695,0.5950753362661222,0.32554208352562247,0.35242955980739743,0.5923991586203017,0.005078446845450876
0.6447499999999999,0.63475,0.68425,0.6025,0.73725,0.55025,0.93,0.8575,0.85725,0.8022499999999999,0.7935,0.789,0.5036967602085652,0.4929990040424161,0.6091628097721015,0.5855567770479553,0.29816244384681784,0.34979273983155784,0.5929917840296982,0.003385873665046187
0.645,0.635,0.685,0.6025,0.7375,0.55,0.93,0.8575,0.8575,0.8025,0.795,0.79,0.49811939773859043,0.49649071416017343,0.5751010604018982,0.5607313454774236,0.3080852673068968,0.3502340714580336,0.5918040356039109,0.004695438247378603
0.645,0.635,0.685,0.6025,0.7375,0.55,0.93,0.8575,0.8575,0.8025,0.795,0.79,0.49664889565879666,0.4971585915988049,0.5733317710469272,0.5403160586329074,0.3205071706300763,0.31466214468271103,0.664239051608967,0.02061189683238208
0.645,0.635,0.685,0.6025,0.7375,0.55,0.93,0.8575,0.8575,0.8025,0.795,0.79,0.49267678247114655,0.4977796004452516,0.5771574198840003,0.519698639415961,0.32458655457887897,0.31466214468271103,0.664239051608967,0.02061189683238208
0.645,0.635,0.685,0.6025,0.7375,0.55,0.93,0.8575,0.8575,0.8025,0.795,0.79,0.49199718788446895,0.499859394223446,0.57841115472494,0.5094818081324651,0.32916207901092776,0.3313349836705883,0.6404866249056463,0.011428201359660037
0.645,0.635,0.685,0.6025,0.7375,0.55,0.93,0.8575,0.8575,0.8025,0.795,0.79,0.49510809069072587,0.5066963501083837,0.5722186419825415,0.5054759281513103,0.3498162496728249,0.3475804750342149,0.6476156130673649,0.03244130479498275
0.64425,0.63375,0.68425,0.60125,0.736,0.5485,0.92975,0.856,0.85725,0.8025,0.7935,0.78975,0.4958404124436112,0.5042709004628273,0.5715683402659792,0.5022418231972352,0.37363102275814464,0.3475804750342149,0.6476156130673649,0.03244130479498275
0.6435,0.6325,0.6835,0.6,0.7345,0.547,0.9295,0.8545,0.857,0.8025,0.792,0.7895,0.4963325326615502,0.5044466576835198,0.5701505653523933,0.4977398019065618,0.40020213467162286,0.3576752426413543,0.6084381276549922,0.03451839922412798
0.64275,0.63125,0.6827500000000001,0.59875,0.733,0.5455,0.92925,0.853,0.85675,0.8025,0.7905,0.78925,0.4969945515261585,0.5035210029878727,0.5667936024371668,0.4960124957413204,0.42609335002669824,0.3655745218991298,0.5918197064300952,0.0457718165827224
0.642,0.63,0.682,0.5975,0.7315,0.544,0.929,0.8515,0.8565,0.8025,0.789,0.789,0.49753354033628217,0.5032925186009726,0.5593942234460132,0.49338478531794433,0.4570011034170417,0.3677672123593758,0.585291484845114,0.05065419689417303
0.64125,0.62875,0.68125,0.59625,0.73,0.5425,0.92875,0.85,0.85625,0.8025,0.7875,0.78875,0.49577010955533424,0.4970004101001816,0.5638467397035561,0.49753767007300487,0.4728408683442511,0.3730352674195474,0.5734202851263724,0.05215105297828108
0.64125,0.62875,0.68125,0.59625,0.73,0.5425,0.92875,0.85,0.85625,0.8025,0.7875,0.78875,0.4956705137969418,0.4983771749956061,0.5623293690315777,0.5035464900806621,0.4840867333324857,0.3782977212581193,0.5746086597958014,0.05590068181621341
0.64125,0.62875,0.68125,0.59625,0.73,0.5425,0.92875,0.85,0.85625,0.8025,0.7875,0.78875,0.49504364637647197,0.49882828519538347,0.5612748257074228,0.5059353176566292,0.48985667067235844,0.4864353681489991,0.7195382217897262,0.1655664989757377
0.64125,0.62875,0.68125,0.59625,0.73,0.5425,0.92875,0.85,0.85625,0.8025,0.7875,0.78875,0.4944226375300252,0.4992793953951608,0.5601792723651063,0.5082138916162423,0.495259096077467,0.48856934104131833,0.6922532652177703,0.21643828895097034
0.63975,0.627,0.68025,0.59575,0.72875,0.542,0.9235,0.8454999999999999,0.8504999999999999,0.79325,0.7809999999999999,0.767,0.49358486144472435,0.4993555568574609,0.5593297791317593,0.5098309442010545,0.4970047777855593,0.48759439643775376,0.6661535447294633,0.2686222992350807
0.63825,0.62525,0.67925,0.59525,0.7275,0.5415,0.91825,0.841,0.8447499999999999,0.784,0.7745000000000001,0.7452500000000001,0.4933036498916164,0.49977737418712287,0.5587966488956588,0.5110069824641497,0.4961411247927508,0.5185572472472568,0.646652251422146,0.4551074823941677
0.6367499999999999,0.6235,0.67825,0.59475,0.72625,0.541,0.9129999999999999,0.8365,0.8390000000000001,0.7747499999999999,0.768,0.7234999999999999,0.49321577128127014,0.5001113129064386,0.5587673560255434,0.5106394706012352,0.4947813306700482,0.5361099624856959,0.6294418383990661,0.4656168260598519
0.63525,0.62175,0.6772499999999999,0.59425,0.725,0.5405,0.9077500000000001,0.8320000000000001,0.83325,0.7655,0.7615000000000001,0.70175,0.49325678129943173,0.500287070127131,0.5588318003397973,0.5094818079887656,0.4935317900200002,0.5361099624856959,0.6294418383990661,0.4656168260598519
0.63375,0.62,0.67625,0.59375,0.72375,0.54,0.9025,0.8275,0.8275,0.75625,0.755,0.68,0.49325092272540866,0.5004452516257543,0.5589079618020973,0.5078831311264287,0.4924108786369319,0.5892765510627692,0.5902781598170974,0.48737855772357397
0.63375,0.62,0.67625,0.59375,0.72375,0.54,0.9025,0.8275,0.8275,0.75625,0.755,0.68,0.4934325385201242,0.500421817329662,0.5592477590954361,0.5065600880894279,0.49154722557227365,0.6165106593995943,0.5712930165191801,0.5042500994393095
0.63275,0.6185,0.67525,0.5925,0.72225,0.53825,0.9015000000000001,0.8272499999999999,0.82575,0.75325,0.753,0.6707500000000001,0.4936141543148398,0.5003983830335696,0.559587556388775,0.5052370450524271,0.4906835725076154,0.6424235598593816,0.5564649816601603,0.5216678940182311
0.6317499999999999,0.617,0.67425,0.59125,0.72075,0.5365,0.9005,0.8270000000000001,0.8240000000000001,0.7502500000000001,0.7509999999999999,0.6615000000000001,0.4939480930341555,0.5002226258128771,0.5597340207393521,0.5046122747274031,0.4902609337646741,0.7241174966458671,0.519701871778147,0.595090857024799
0.63075,0.6154999999999999,0.67325,0.59,0.71925,0.5347500000000001,0.8995000000000001,0.82675,0.8222499999999999,0.74725,0.7490000000000001,0.65225,0.4940769816626633,0.5000527271662077,0.5599390708301599,0.5050349134703443,0.4902609337646741,0.7241174966458671,0.519701871778147,0.595090857024799
0.62975,0.614,0.6722499999999999,0.58875,0.7177500000000001,0.5329999999999999,0.8985,0.8265,0.8205,0.74425,0.747,0.643,0.4942351631612865,0.5000410100181616,0.5600738180326909,0.5058618153056014,0.4906835725076154,0.743885274570767,0.501908853243936,0.6190535972808696
0.62875,0.6125,0.67125,0.5875,0.71625,0.53125,0.8975,0.82625,0.81875,0.74125,0.745,0.63375,0.49426445603140196,0.5001874743687387,0.5600210908664831,0.5063579564354954,0.49147372311347104,0.743885274570767,0.501908853243936,0.6190535972808696
0.62875,0.6125,0.67125,0.5875,0.71625,0.53125,0.8975,0.82625,0.81875,0.74125,0.745,0.63375,0.49430546604956355,0.5002753529790849,0.5599390708301599,0.5067438439490354,0.49237412733568087,0.7899457691248855,0.46692736231681753,0.6970992313905684
0.62875,0.6125,0.67125,0.5875,0.71625,0.53125,0.8975,0.82625,0.81875,0.74125,0.745,0.63375,0.4941765774210557,0.500497978791962,0.559874626515906,0.5066887171408583,0.4930724000476577,0.8648071899218293,0.4504631149089081,0.9704205651200353
0.62875,0.6125,0.67125,0.5875,0.71625,0.53125,0.8975,0.82625,0.81875,0.74125,0.745,0.63375,0.4942175874392173,0.5007147460308161,0.5598218993496983,0.5059169421137784,0.4937522971808587,0.8529554731460482,0.4629281925243294,0.9662621439196636
0.62875,0.6125,0.67125,0.5875,0.71625,0.53125,0.8975,0.82625,0.81875,0.74125,0.745,0.63375,0.4943171831976097,0.5007909074931162,0.5598687679418829,0.504998162276868,0.49446894539976155,0.8529554731460482,0.4629281925243294,0.9662621439196636
0.628,0.61175,0.6709999999999999,0.58675,0.71525,0.531,0.89625,0.8242499999999999,0.816,0.73925,0.7432500000000001,0.6295000000000001,0.4943581932157713,0.50077919034507,0.5598160407756751,0.5036751193117169,0.49527747165624275,0.8463690135413207,0.46648829921591145,0.9595281334924615
0.62725,0.611,0.6707500000000001,0.586,0.7142499999999999,0.53075,0.895,0.8222499999999999,0.81325,0.73725,0.7415,0.62525,0.49434061749370206,0.5007206046048391,0.5597691721834905,0.5023337007857526,0.49636163184583465,0.8195762368309716,0.4694401170394848,0.9306654972119942
0.6267499999999999,0.61025,0.6707500000000001,0.58475,0.7134999999999999,0.53075,0.89225,0.8205,0.80975,0.7347499999999999,0.7384999999999999,0.6204999999999999,0.49434061749370206,0.5005389888101236,0.5597457378873982,0.5017456817260547,0.496912899712056,0.8195762368309716,0.4694401170394848,0.9306654972119942
0.62625,0.6095,0.6707500000000001,0.5835,0.7127500000000001,0.53075,0.8895000000000001,0.81875,0.80625,0.73225,0.7354999999999999,0.61575,0.4942820317534712,0.5004511101997774,0.5596871521471674,0.501359794140665,0.49698640209900885,0.8072692044264892,0.468838090607892,0.9203736909542438
0.62575,0.60875,0.6707500000000001,0.58225,0.7120000000000001,0.53075,0.8867499999999999,0.8170000000000001,0.8027500000000001,0.7297499999999999,0.7325,0.611,0.4941765774210557,0.5003632315894311,0.5596285664069366,0.5012679161390116,0.4968393973251032,0.7861913992942952,0.46703954833952954,0.8941568560037492
0.626,0.60875,0.6709999999999999,0.58175,0.7122499999999999,0.531,0.8852500000000001,0.8172499999999999,0.802,0.72925,0.73125,0.6104999999999999,0.4940769816626633,0.5001757572206925,0.5595348292225673,0.5022050715906227,0.4958838662947163,0.6855564227136886,0.4390685823798573,0.7934097918348193
0.62625,0.60875,0.67125,0.58125,0.7125,0.53125,0.88375,0.8175,0.80125,0.72875,0.73,0.61,0.4940476887925479,0.5001523229246001,0.5595348292225673,0.5036751193117169,0.4943219406258559,0.6772158118294371,0.4343113262402917,0.7859261700155102
0.6267499999999999,0.6095,0.6715000000000001,0.58175,0.7125,0.5325,0.884,0.8165,0.8009999999999999,0.72875,0.73,0.6095,0.4942117288651942,0.500281211553108,0.5594703849083134,0.5054391765626601,0.4923373760344298,0.6772158118294371,0.4343113262402917,0.7859261700155102
0.62725,0.61025,0.67175,0.58225,0.7125,0.53375,0.88425,0.8155,0.8007500000000001,0.72875,0.73,0.609,0.4943816275118636,0.5003339387193158,0.5594938192044057,0.5072767363083307,0.49062844555573876,0.6622719540057512,0.43430317770537874,0.767547980852766
0.62775,0.611,0.672,0.58275,0.7125,0.535,0.8845000000000001,0.8145,0.8005,0.72875,0.73,0.6085,0.49455152615853304,0.5003866658855235,0.559517253500498,0.5091142960540014,0.4889195150770478,0.6490850507940712,0.43845027361358313,0.758736292020867
0.62825,0.61175,0.6722499999999999,0.58325,0.7125,0.53625,0.8847499999999999,0.8134999999999999,0.80025,0.72875,0.73,0.608,0.49463354619485617,0.5006268674204699,0.5595699806667057,0.5106027192999841,0.48750459407431834,0.6301831651175079,0.444380859840035,0.7472743361636003
0.62875,0.6125,0.6725,0.58375,0.7125,0.5375,0.885,0.8125,0.8,0.72875,0.73,0.6075,0.49490889917394104,0.500849493233347,0.5595699806667057,0.5117236306112026,0.4864388093557276,0.6301831651175079,0.444380859840035,0.7472743361636003
0.62925,0.6132500000000001,0.6727500000000001,0.58475,0.7127500000000001,0.5385,0.8859999999999999,0.813,0.8,0.7284999999999999,0.7297499999999999,0.60625,0.4948503134337102,0.5009490889917394,0.5596227078329135,0.5118338842275568,0.4864204339206514,0.625781007749037,0.4520961962395898,0.7468828143154475
0.62975,0.614,0.6729999999999999,0.58575,0.713,0.5395,0.887,0.8134999999999999,0.8,0.7282500000000001,0.7295,0.605,0.4948678891557795,0.5010779776202472,0.5596168492588904,0.512017640159014,0.48636530704062453,0.6002479234586809,0.465764059495769,0.7585178922717534
0.63025,0.61475,0.67325,0.58675,0.71325,0.5405,0.888,0.8140000000000001,0.8,0.728,0.72925,0.60375,0.4949147577479641,0.5011717148046165,0.5595524049446364,0.512091142474117,0.4864388093557276,0.6041668026373644,0.4901279062853062,0.7971640865544919
0.63075,0.6154999999999999,0.6735,0.58775,0.7134999999999999,0.5415,0.889,0.8145,0.8,0.72775,0.7290000000000001,0.6025,0.4952076864491183,0.5012654519889859,0.5594586677602671,0.5118890109638841,0.48706357975260134,0.6054824201795304,0.4907261678874773,0.8016559210742898
0.63125,0.61625,0.67375,0.58875,0.71375,0.5425,0.89,0.815,0.8,0.7275,0.72875,0.60125,0.4952428378932568,0.5012888862850782,0.5594000820200363,0.5116501282960996,0.4878169792009055,0.6054824201795304,0.4907261678874773,0.8016559210742898
0.6315,0.6164999999999999,0.674,0.589,0.7142499999999999,0.5425,0.8895000000000001,0.81675,0.7995,0.72675,0.728,0.6004999999999999,0.49542445368797233,0.5015232292460016,0.5593356377057824,0.5104740901048542,0.4898199192274078,0.6287780750005749,0.5263698488412147,0.8308232694011272
0.6317499999999999,0.61675,0.67425,0.5892499999999999,0.71475,0.5425,0.889,0.8184999999999999,0.799,0.726,0.72725,0.59975,0.4956060694826879,0.5016404007264632,0.5592594762434824,0.5082138916880921,0.4926497612149042,0.6287780750005749,0.5263698488412147,0.8308232694011272
0.632,0.617,0.6745,0.5895,0.71525,0.5425,0.8885,0.82025,0.7985,0.7252500000000001,0.7265,0.599,0.49577010955533424,0.5017048450407171,0.5592594762434824,0.5058434397268256,0.4955714811860916,0.6428560351325603,0.540624693946444,0.8388797653139427
0.63225,0.61725,0.67475,0.58975,0.71575,0.5425,0.888,0.8220000000000001,0.7979999999999999,0.7245,0.72575,0.5982500000000001,0.4957818267033804,0.5017575722069249,0.5592887691135977,0.5034913633622973,0.4984196986266267,0.6481240847493678,0.538851223526462,0.8439393318626027
0.63275,0.6175,0.67475,0.59,0.71575,0.54225,0.887,0.823,0.79675,0.72375,0.725,0.597,0.49572909953717265,0.5017751479289941,0.5594352334641748,0.5012679161749364,0.5007350238874908,0.6538390672142509,0.5388531022573867,0.8478700381338641
0.633,0.6175,0.6745,0.59,0.71525,0.542,0.8865000000000001,0.8222499999999999,0.7959999999999999,0.72375,0.725,0.5965,0.4957408166852188,0.501693127892671,0.5595289706485441,0.5006247702711366,0.5013046673684128,0.6577915047322566,0.5406384786741313,0.8491782701147855
0.63325,0.6175,0.67425,0.59,0.71475,0.54175,0.8859999999999999,0.8215,0.79525,0.72375,0.725,0.596,0.4955709180385494,0.5016579764485324,0.5596285664069366,0.5011576625585823,0.5009555310303868,0.68067098715543,0.5572775880419175,0.8673685293116116
0.6335000000000001,0.6175,0.674,0.59,0.7142499999999999,0.5415,0.8855,0.82075,0.7945,0.72375,0.725,0.5954999999999999,0.495471322280157,0.5016521178745094,0.5596109906848673,0.5019478132362877,0.5004042631102782,0.68067098715543,0.5572775880419175,0.8673685293116116
0.63375,0.6175,0.67375,0.59,0.71375,0.54125,0.885,0.82,0.79375,0.72375,0.725,0.595,0.49545960513211085,0.5017048450407171,0.5597047278692366,0.5029217198993376,0.4994854833092926,0.6921093348658218,0.5632244713381953,0.8739403674775018
0.63375,0.6175,0.67375,0.59,0.71375,0.54125,0.885,0.82,0.79375,0.72375,0.725,0.595,0.4955709180385494,0.5017282793368094,0.5595699806667057,0.5037486217345947,0.49886071302019347,0.6921093348658218,0.5632244713381953,0.8739403674775018
0.63375,0.6175,0.67375,0.59,0.71375,0.54125,0.885,0.82,0.79375,0.72375,0.725,0.595,0.49551819087234167,0.5017927236510633,0.5593649305758979,0.5040610069330315,0.49897096660062273,0.6978215139982231,0.5661925862315945,0.8758104869936301
0.63375,0.6175,0.67375,0.59,0.71375,0.54125,0.885,0.82,0.79375,0.72375,0.725,0.595,0.49565879664889567,0.5019450465756635,0.5592946276876208,0.5039875045460787,0.499522234502769,0.7066286320676469,0.5727289563514887,0.8806968248351379
0.6335000000000001,0.6175,0.67375,0.58975,0.71375,0.54125,0.8847499999999999,0.8192499999999999,0.79375,0.72375,0.72425,0.59425,0.49568808951901105,0.5021500966664714,0.559300486261644,0.5031973538683733,0.5007717750630047,0.7158742838744288,0.5834161651062924,0.8805120860053985
0.63325,0.6175,0.67375,0.5895,0.71375,0.54125,0.8845000000000001,0.8184999999999999,0.79375,0.72375,0.7234999999999999,0.5935,0.49589313960981896,0.5023727224793485,0.559025133282559,0.5016538036705139,0.502921719791563,0.7185250878524936,0.5869806628709378,0.8792021731698975
0.633,0.6175,0.67375,0.5892499999999999,0.71375,0.54125,0.88425,0.8177500000000001,0.79375,0.72375,0.72275,0.59275,0.49601616966430373,0.5027066611986643,0.5588435174878434,0.4990995957059404,0.5064314586428238,0.7321701045819926,0.5976691314805967,0.8786510400242108
0.63275,0.6175,0.67375,0.589,0.71375,0.54125,0.884,0.8170000000000001,0.79375,0.72375,0.722,0.5920000000000001,0.4959517253500498,0.5027066611986643,0.5590544261526744,0.49557148113220434,0.5101617047267929,0.7651946893996066,0.6469537103760638,0.8801732783154608
0.6325,0.6175,0.67375,0.58875,0.71375,0.54125,0.88375,0.81625,0.79375,0.72375,0.72125,0.59125,0.4959810182201652,0.502554338274064,0.5591188704669283,0.4917309813600313,0.5142410872026753,0.7687225717391154,0.651110199938892,0.8794394697992863
0.6325,0.6175,0.67375,0.58875,0.71375,0.54125,0.88375,0.81625,0.79375,0.72375,0.72125,0.59125,0.4959517253500498,0.502478176811764,0.5592184662253208,0.488460125176555,0.517677323738833,0.7687225717391154,0.651110199938892,0.8794394697992863
0.6325,0.6175,0.67375,0.58875,0.71375,0.54125,0.88375,0.81625,0.79375,0.72375,0.72125,0.59125,0.49550061515027244,0.5021852481106098,0.5596520007030289,0.4857589125099256,0.5202866585115836,0.7819206610639029,0.6748594880564324,0.8788922716774995
0.6315,0.61625,0.6729999999999999,0.58825,0.7134999999999999,0.54025,0.8835,0.8170000000000001,0.79375,0.7234999999999999,0.72225,0.59375,0.49508465639463356,0.5017399964848556,0.5601148280508524,0.48469312779133483,0.5213891943877259,0.7867865222850644,0.679610481759582,0.8787339728442887
0.6305,0.615,0.6722499999999999,0.58775,0.71325,0.53925,0.88325,0.8177500000000001,0.79375,0.7232500000000001,0.7232500000000001,0.59625,0.4947975862675025,0.5013591891733552,0.5602495752533834,0.48546490281841476,0.5214994481477796,0.8008980407563719,0.7146327079936929,0.86738480363231
0.6295000000000001,0.61375,0.6715000000000001,0.58725,0.713,0.53825,0.883,0.8184999999999999,0.79375,0.723,0.72425,0.59875,0.4943933446599098,0.5010838361942703,0.5604311910480989,0.48763322326944825,0.5208195510145786,0.8008980407563719,0.7146327079936929,0.86738480363231
0.6285000000000001,0.6125,0.6707500000000001,0.58675,0.7127500000000001,0.53725,0.88275,0.8192499999999999,0.79375,0.72275,0.7252500000000001,0.60125,0.4941179916808249,0.5008963618255317,0.5605717968246529,0.4904263139377312,0.5201947807614044,0.8127805179823573,0.7015662449254649,0.8570084820162727
0.6275,0.61125,0.67,0.58625,0.7125,0.53625,0.8825,0.82,0.79375,0.7225,0.72625,0.60375,0.4942175874392173,0.501066260472201,0.5605014939363759,0.4935685409620024,0.5202866587989827,0.8224647089698612,0.6991907480738901,0.854251657813013
0.6275,0.61125,0.67,0.58625,0.7125,0.53625,0.8825,0.82,0.79375,0.7225,0.72625,0.60375,0.49433475891967893,0.5012654519889859,0.5604722010662605,0.4959757442963698,0.5215178238702549,0.8321405117333756,0.6968127462477489,0.8486693123230886
0.6275,0.61125,0.67,0.58625,0.7125,0.53625,0.8825,0.82,0.79375,0.7225,0.72625,0.60375,0.49459839475071765,0.5012244419708243,0.5611225027828226,0.49772142598649965,0.5248805578039105,0.8457799381280028,0.6712661683491292,0.8284200429866654
0.6275,0.61125,0.67,0.58625,0.7125,0.53625,0.8825,0.82,0.79375,0.7225,0.72625,0.60375,0.4947858691194563,0.5007733317710469,0.5621243189407699,0.49882396182671707,0.5295112079663898,0.8493134053590192,0.6635420645385922,0.8187391450434931
0.62725,0.61,0.66975,0.5852499999999999,0.7115,0.534,0.8835,0.82075,0.7985,0.727,0.731,0.61575,0.4949323334700334,0.5001640400726464,0.5631554279688324,0.49941198092233974,0.5340132289337393,0.8493134053590192,0.6635420645385922,0.8187391450434931
0.627,0.60875,0.6695,0.5842499999999999,0.7105,0.53175,0.8845000000000001,0.8215,0.80325,0.7315,0.73575,0.62775,0.4944636475481868,0.4991153553225145,0.5648075458433417,0.5033627342030922,0.5425395061076673,0.8493134053590192,0.6635420645385922,0.8187391450434931
0.6267499999999999,0.6075,0.66925,0.58325,0.7095,0.5295000000000001,0.8855,0.8222499999999999,0.8079999999999999,0.736,0.7404999999999999,0.63975,0.49427031460542503,0.49830101353330597,0.5669342082137208,0.5096288126728591,0.5554391747664158,0.8590199685727378,0.6540181586048371,0.7835139600907365
0.6265,0.60625,0.669,0.58225,0.7084999999999999,0.52725,0.8865000000000001,0.823,0.8127500000000001,0.7404999999999999,0.7452500000000001,0.6517499999999999,0.49515495928291053,0.5014997949499092,0.5710762200480403,0.5186328552003185,0.5724733539665947,0.8590199685727378,0.6540181586048371,0.7835139600907365
0.62625,0.605,0.66875,0.58125,0.7075,0.525,0.8875,0.82375,0.8175,0.745,0.75,0.66375,0.4954478879840647,0.5016111078563478,0.5772042884761849,0.5272693857391265,0.5996508624225655,0.8586121898422202,0.6587566127000104,0.7674564021147334
0.62625,0.605,0.66875,0.58125,0.7075,0.525,0.8875,0.82375,0.8175,0.745,0.75,0.66375,0.49413556740289416,0.5052668580467514,0.5851016462593005,0.5367328180413417,0.6368246949293237,0.8582016132225845,0.6682310085482185,0.7318023054795679
0.62625,0.605,0.66875,0.58125,0.7075,0.525,0.8875,0.82375,0.8175,0.745,0.75,0.66375,0.49413556740289416,0.5071884703263225,0.5938836487199016,0.5433664090206709,0.6798970918155915,0.6508648403182354,0.5944089439203314,0.47461010167495277
0.62625,0.605,0.66875,0.58125,0.7075,0.525,0.8875,0.82375,0.8175,0.745,0.75,0.66375,0.49541859511394926,0.5082488722245005,0.6028882769933798,0.548327819601114,0.7267181130948954,0.6126449020106018,0.5914157645461241,0.44130379405101716
0.62625,0.605,0.66875,0.58125,0.7075,0.525,0.8875,0.82375,0.8175,0.745,0.75,0.66375,0.495260413615326,0.5072822075106919,0.608635538110024,0.5437890471888139,0.7729327361073124,0.6126449020106018,0.5914157645461241,0.44130379405101716
0.62825,0.60625,0.66975,0.58275,0.71,0.52625,0.893,0.82625,0.82375,0.75425,0.7565000000000001,0.6855,0.49482102056359484,0.5096432128419942,0.6107504833323569,0.5360529209081406,0.81052920793181,0.5138116190510665,0.5907566983701406,0.3529404479121384
0.63025,0.6075,0.6707500000000001,0.5842499999999999,0.7125,0.5275,0.8985,0.82875,0.83,0.7635,0.763,0.7072499999999999,0.4925127423985002,0.5113070478645497,0.6102935145585564,0.5369349492641756,0.8292355635072878,0.5138116190510665,0.5907566983701406,0.3529404479121384
0.63225,0.60875,0.67175,0.58575,0.715,0.52875,0.904,0.83125,0.83625,0.77275,0.7695000000000001,0.7290000000000001,0.48950143535063567,0.5112250278282267,0.6056066553400902,0.5354097740702939,0.8294560744761841,0.4940606230175098,0.6008306083078028,0.32652613446241535
0.63425,0.61,0.6727500000000001,0.58725,0.7175,0.53,0.9095,0.83375,0.8425,0.782,0.7759999999999999,0.75075,0.47514792899408287,0.5079325092272541,0.5987111137149218,0.5288313108331888,0.821205430840193,0.4532569919670916,0.6328602814113478,0.2781619769647255
0.63625,0.61125,0.67375,0.58875,0.72,0.53125,0.915,0.83625,0.84875,0.79125,0.7825,0.7725,0.46783057003925244,0.5036030230241959,0.5921905208272307,0.5126240345460134,0.7917126014702693,0.42118497952682743,0.6589656454600015,0.25341749955399906
0.63625,0.61125,0.67375,0.58875,0.72,0.53125,0.915,0.83625,0.84875,0.79125,0.7825,0.7725,0.45938836487199014,0.5015408049680707,0.5873513386841642,0.4909775823428258,0.7357772839214147,0.4128807248710161,0.6809201561386012,0.22022438250164575
0.63625,0.61125,0.67375,0.58875,0.72,0.53125,0.915,0.83625,0.84875,0.79125,0.7825,0.7725,0.45155545140312847,0.498160407756752,0.5798816568047337,0.46126424315360204,0.6831128254300272,0.40018828596223094,0.7046569120157375,0.1926637937470182
0.637,0.61275,0.6745,0.59,0.721,0.53275,0.9177500000000001,0.83875,0.85,0.792,0.7825,0.77275,0.4436815279161052,0.4974808131700744,0.5725350049797879,0.4379823619964791,0.6415288476943053,0.38354620198119405,0.7230394100059928,0.13433803203773745
0.63775,0.61425,0.67525,0.59125,0.722,0.53425,0.9205,0.84125,0.85125,0.7927500000000001,0.7825,0.773,0.44587263460073817,0.4989747495459605,0.5664596637178511,0.41760382487251896,0.6000735017403049,0.3568317226192325,0.6137685735483484,0.008079215286204741
0.6385000000000001,0.61575,0.6759999999999999,0.5925,0.723,0.5357500000000001,0.92325,0.84375,0.8525,0.7935,0.7825,0.77325,0.44317769055012013,0.49936727400550707,0.5604136153260296,0.4071664846319204,0.5721977198538596,0.3568317226192325,0.6137685735483484,0.008079215286204741
0.63925,0.61725,0.67675,0.59375,0.7240000000000001,0.53725,0.9259999999999999,0.84625,0.85375,0.79425,0.7825,0.7735,0.4434354678071357,0.49835959927353685,0.5534594879606304,0.40047776763476167,0.565398748521849,0.35201059496377235,0.5953653947827762,0.0016938678767088255
0.64,0.61875,0.6775,0.595,0.725,0.53875,0.92875,0.84875,0.855,0.795,0.7825,0.77375,0.4473021266623704,0.49667232995488897,0.5493994961626341,0.3914002228101615,0.5633590571222459,0.3520077970746545,0.5929911504184845,0.003384881025061799
0.64,0.61875,0.6775,0.595,0.725,0.53875,0.92875,0.84875,0.855,0.795,0.7825,0.77375,0.4533188821840764,0.49637354267971173,0.5457496045462534,0.38107313690441486,0.5572951100908623,0.3520077970746545,0.5929911504184845,0.003384881025061799
0.64,0.61875,0.6775,0.595,0.725,0.53875,0.92875,0.84875,0.855,0.795,0.7825,0.77375,0.4602554338274064,0.4975862675024899,0.54154314839768,0.3738882782744136,0.5506982705564837,0.3515552793350713,0.5858684320607541,0.003941526994718843
0.6395000000000001,0.6195,0.6775,0.59525,0.72575,0.5397500000000001,0.93,0.84875,0.855,0.7959999999999999,0.78325,0.77425,0.4654285546897885,0.49930282969125317,0.5375534594879606,0.3729327476032756,0.5465821368871249,0.3498039259446652,0.5888359207105117,0.00319447656639021
0.639,0.62025,0.6775,0.5954999999999999,0.7265,0.5407500000000001,0.93125,0.84875,0.855,0.797,0.784,0.7747499999999999,0.47235924775909544,0.500568281680239,0.5325385201242018,0.38623667870769185,0.5432745298334961,0.351560875113307,0.5941776463569887,0.0035731900420480226
0.6385000000000001,0.621,0.6775,0.59575,0.72725,0.54175,0.9325,0.84875,0.855,0.7979999999999999,0.78475,0.7752500000000001,0.47905559786747903,0.5008612103813932,0.5279336809420587,0.4036199926113145,0.5393237770916169,0.351560875113307,0.5941776463569887,0.0035731900420480226
0.638,0.62175,0.6775,0.596,0.728,0.54275,0.93375,0.84875,0.855,0.799,0.7855,0.77575,0.4839826586208917,0.5003515144413849,0.5251801511512098,0.41855935324446436,0.5352443948672088,0.3502480554602589,0.5941782726006303,0.003765147425563861
0.6375,0.6225,0.6775,0.59625,0.72875,0.54375,0.935,0.84875,0.855,0.8,0.78625,0.77625,0.48844103345245765,0.4997246470209151,0.522578944284961,0.4335722167675154,0.5288129362603098,0.35024245968202317,0.5912114175620865,0.003947797920825326
0.6375,0.6225,0.6775,0.59625,0.72875,0.54375,0.935,0.84875,0.855,0.8,0.78625,0.77625,0.4931220340969008,0.498869295213545,0.5194797586267502,0.45071664915294984,0.520819551804926,0.35024245968202317,0.5912114175620865,0.003947797920825326
0.6375,0.6225,0.6775,0.59625,0.72875,0.54375,0.935,0.84875,0.855,0.8,0.78625,0.77625,0.49551819087234167,0.49735778311558965,0.5173706719784404,0.4614479975043643,0.5136714444222885,0.3511139477085955,0.5959586390682421,0.0030120369182852513
0.63825,0.6232500000000001,0.6779999999999999,0.5965,0.7290000000000001,0.54425,0.9355,0.84925,0.8552500000000001,0.79975,0.7865000000000001,0.77625,0.4974046517077743,0.49596930107211906,0.5153904739586385,0.46911062146993454,0.5080301359362593,0.351560875113307,0.5906175396654066,0.0030046489760627002
0.639,0.624,0.6785,0.59675,0.72925,0.5447500000000001,0.9359999999999999,0.8497499999999999,0.8554999999999999,0.7995,0.78675,0.77625,0.49908606245239906,0.4941472845509403,0.5133516901986057,0.4791253219616951,0.5022785741033126,0.35243794803138695,0.5929917840296982,0.0035700640552714154
0.63975,0.62475,0.679,0.597,0.7295,0.54525,0.9365000000000001,0.8502500000000001,0.85575,0.79925,0.787,0.77625,0.5003925244595465,0.492213955123323,0.5115179565293807,0.4879088570229345,0.4980154355163485,0.35243794803138695,0.5929917840296982,0.0035700640552714154
0.6405,0.6255,0.6795,0.5972500000000001,0.7297499999999999,0.5457500000000001,0.937,0.85075,0.856,0.799,0.7872499999999999,0.77625,0.5017810065030172,0.4904095143242135,0.51005331302361,0.4943035648494932,0.4942300626242024,0.35113072415657454,0.5941795250879135,0.004320418150564803
0.64125,0.62625,0.68,0.5975,0.73,0.54625,0.9375,0.85125,0.85625,0.79875,0.7875,0.77625,0.5029527213076337,0.48906204229890443,0.5089929111254321,0.497868430706518,0.4900771777074798,0.35288767332521637,0.5941776463569887,0.002632572447699023
0.64125,0.62625,0.68,0.5975,0.73,0.54625,0.9375,0.85125,0.85625,0.79875,0.7875,0.77625,0.504452516257543,0.4878844689202648,0.5074872576014998,0.5014884233537573,0.484417493894149,0.35288767332521637,0.5941776463569887,0.002632572447699023
0.64125,0.62625,0.68,0.5975,0.73,0.54625,0.9375,0.85125,0.85625,0.79875,0.7875,0.77625,0.5058702911711289,0.4877497217177339,0.5062628156306755,0.5014332965635427,0.47831679577706365,0.3515552793350713,0.5900224166490159,0.004501911355534218
0.64125,0.62625,0.68,0.5975,0.73,0.54625,0.9375,0.85125,0.85625,0.79875,0.7875,0.77625,0.5071181674380456,0.48854648778487314,0.505307868064913,0.5015619256868229,0.4709481813593048,0.3515552793350713,0.5864623099574339,0.0035700687934098314
0.64125,0.62625,0.68,0.5975,0.73,0.54625,0.9375,0.85125,0.85625,0.79875,0.7875,0.77625,0.5081668521881774,0.4897943640517898,0.5043294862030582,0.5031973538324483,0.4626607871405603,0.35155807722418914,0.5965556481831298,0.004510852222601097
0.6409999999999999,0.6265,0.68025,0.5975,0.73,0.5465,0.937,0.851,0.856,0.79925,0.7872499999999999,0.7767499999999999,0.5088405882008319,0.49142304763020683,0.503825648837073,0.5067254682804474,0.45374862266864163,0.34891845935923166,0.5929924102733399,0.002441909760487321
0.64075,0.6267499999999999,0.6805,0.5975,0.73,0.54675,0.9365000000000001,0.85075,0.85575,0.79975,0.787,0.77725,0.5091862440681938,0.49288183256195445,0.5037670630968423,0.5101984559382318,0.4463432570933312,0.34891845935923166,0.5929924102733399,0.002441909760487321
0.6405,0.627,0.6807500000000001,0.5975,0.73,0.547,0.9359999999999999,0.8504999999999999,0.8554999999999999,0.80025,0.78675,0.77775,0.5091921026422169,0.4942585974573789,0.5040951432421349,0.5161705249859243,0.43757809725161867,0.35199661640491114,0.5923997848639433,0.0022631942891256835
0.6402500000000001,0.62725,0.6809999999999999,0.5975,0.73,0.54725,0.9355,0.8502500000000001,0.8552500000000001,0.8007500000000001,0.7865000000000001,0.77825,0.5083894780010545,0.49521940359716443,0.5044349405354737,0.5236310174412616,0.4275450211810824,0.35199661640491114,0.5923997848639433,0.0022631942891256835
0.64,0.6275,0.68125,0.5975,0.73,0.5475,0.935,0.85,0.855,0.80125,0.78625,0.77875,0.5063155427968833,0.49613334114476537,0.5048216064209972,0.5338662243035331,0.41655641386460995,0.34979553227731164,0.5906175396654066,0.004138580246030371
0.64,0.6275,0.68125,0.5975,0.73,0.5475,0.935,0.85,0.855,0.80125,0.78625,0.77875,0.5031929228425801,0.49634424980959635,0.5048977678832972,0.5441014313095043,0.4070378539997951,0.3484771222893918,0.5906187921526898,0.001314008956105002
0.64,0.6275,0.68125,0.5975,0.73,0.5475,0.935,0.85,0.855,0.80125,0.78625,0.77875,0.4976917218349054,0.49619778545901927,0.5051906965844514,0.5577177482590053,0.39785005598993944,0.3511195380434672,0.5935862808024475,0.0035743354869941907
0.64,0.6275,0.68125,0.5975,0.73,0.5475,0.935,0.85,0.855,0.80125,0.78625,0.77875,0.4910012303005448,0.4954771808541801,0.5060519069658446,0.5715545735908111,0.3941381864906429,0.3511167401543493,0.5918052880911941,0.003763748490215996
0.64,0.62725,0.6809999999999999,0.5972500000000001,0.7297499999999999,0.54725,0.93375,0.84925,0.855,0.80125,0.78625,0.779,0.4841877087116996,0.4941531431249634,0.5082898822426621,0.5818265317543336,0.3976846773616525,0.3524407459205049,0.5900255478672239,0.0031942811181832394
0.64,0.627,0.6807500000000001,0.597,0.7295,0.547,0.9325,0.8484999999999999,0.855,0.80125,0.78625,0.77925,0.47872165914816334,0.49246587380631557,0.5120393696174351,0.5858691631085894,0.4054391793648011,0.3506782009736273,0.588838425685078,0.0005619076722949988
0.64,0.6267499999999999,0.6805,0.59675,0.72925,0.54675,0.93125,0.84775,0.855,0.80125,0.78625,0.7795000000000001,0.4744800515554514,0.4920147636065382,0.518044407991095,0.5880558597131968,0.4134693154806849,0.3506782009736273,0.5900261741108654,0.0009409824310019693
0.64,0.6265,0.68025,0.5965,0.7290000000000001,0.5465,0.93,0.847,0.855,0.80125,0.78625,0.7797499999999999,0.47235924775909544,0.4920967836428613,0.5252035854473022,0.5887908840138238,0.4190003694342754,0.3506782009736273,0.5900261741108654,0.0009409824310019693
0.64,0.62625,0.68,0.59625,0.72875,0.54625,0.92875,0.84625,0.855,0.80125,0.78625,0.78,0.4701212724822778,0.4922725408635538,0.5329251860097253,0.5878904787857173,0.42059904521886565,0.34760284181706563,0.5918059143348356,0.0033802364649440633
0.64,0.62625,0.68,0.59625,0.72875,0.54625,0.92875,0.84625,0.855,0.80125,0.78625,0.78,0.4673618841174058,0.4924072880660847,0.540201534946394,0.5892318967548459,0.41637265663985684,0.34760284181706563,0.5918059143348356,0.0033802364649440633
0.64,0.62625,0.68,0.59625,0.72875,0.54625,0.92875,0.84625,0.855,0.80125,0.78625,0.78,0.46278633780537815,0.4923194094557385,0.5471790966078857,0.5917493540648162,0.4110437339091002,0.35024245968202317,0.5894329298253995,0.0028153733788530604
0.64,0.62625,0.68,0.59625,0.72875,0.54625,0.92875,0.84625,0.855,0.80125,0.78625,0.78,0.4581990743453044,0.4912707247056067,0.5518600972523288,0.5941933084848854,0.4059904452910787,0.35024245968202317,0.5894329298253995,0.0028153733788530604
0.6402500000000001,0.6265,0.68,0.59625,0.7284999999999999,0.546,0.9275,0.845,0.8547499999999999,0.8005,0.7857500000000001,0.78,0.453148983537407,0.49051496865662897,0.5564239264163102,0.5929805188486894,0.40424476372668594,0.34979553227731164,0.5900249216235822,0.001875357528074665
0.6405,0.6267499999999999,0.68,0.59625,0.7282500000000001,0.5457500000000001,0.92625,0.84375,0.8545,0.79975,0.78525,0.78,0.44884293163044114,0.4909602202823833,0.5614564415021384,0.5894707794226304,0.40549430480783255,0.34979553227731164,0.5900249216235822,0.001875357528074665
0.64075,0.627,0.68,0.59625,0.728,0.5455,0.925,0.8425,0.85425,0.799,0.78475,0.78,0.4453102114945222,0.4925830452867772,0.5666764309567052,0.5839581017663134,0.4083792742681164,0.349351402761718,0.584089944324067,0.002634502054542123
0.6409999999999999,0.62725,0.68,0.59625,0.72775,0.54525,0.92375,0.84125,0.8540000000000001,0.79825,0.78425,0.78,0.4442615267443904,0.49482102056359484,0.5711348057882711,0.568504224640043,0.4081403904507356,0.35024245968202317,0.5924016709624402,0.002628637423799195
0.64125,0.6275,0.68,0.59625,0.7275,0.545,0.9225,0.84,0.85375,0.7975,0.78375,0.78,0.4447067783701447,0.49714687445075867,0.5747436873864902,0.551617051075967,0.4075707470775882,0.35024245968202317,0.5924016709624402,0.002628637423799195
0.64125,0.6275,0.68,0.59625,0.7275,0.545,0.9225,0.84,0.85375,0.7975,0.78375,0.78,0.44692717792489306,0.49909777960044527,0.5765598453336458,0.5364939350861581,0.40622932910845955,0.34979553227731164,0.5888377994414364,0.002075490569313719
0.64125,0.62775,0.68,0.5965,0.728,0.54525,0.9222499999999999,0.8395,0.85375,0.7972499999999999,0.7835,0.78,0.451309391294159,0.5007733317710469,0.5756048977678833,0.5232083789857195,0.40444689609911616,0.34979553227731164,0.5888377994414364,0.002075490569313719
0.64125,0.628,0.68,0.59675,0.7284999999999999,0.5455,0.922,0.8390000000000001,0.85375,0.797,0.78325,0.78,0.45711523815103405,0.5027183783467104,0.5732087409924425,0.512017640159014,0.40525542214004806,0.3502312790122798,0.5929949152479063,0.003951674902530428
0.64125,0.62825,0.68,0.597,0.7290000000000001,0.5457500000000001,0.92175,0.8384999999999999,0.85375,0.79675,0.7829999999999999,0.78,0.46310270080262467,0.5062100884644678,0.5704669283496397,0.5141675850312718,0.4114847500989113,0.3506726106387556,0.5900286790854318,0.003948540624011751
0.64125,0.6285000000000001,0.68,0.5972500000000001,0.7295,0.546,0.9215000000000001,0.838,0.85375,0.7965000000000001,0.7827500000000001,0.78,0.46800632725994495,0.5104516960571797,0.5687972347530611,0.5221058432532767,0.4209114307765514,0.3506726106387556,0.5900286790854318,0.003948540624011751
0.64125,0.62875,0.68,0.5975,0.73,0.54625,0.92125,0.8375,0.85375,0.79625,0.7825,0.78,0.48168609760384323,0.5124904798172125,0.5778956002109087,0.49395442883479124,0.38631018389678573,0.35156646544817866,0.5912151750239361,0.004134678389098981
0.64125,0.62875,0.68,0.5975,0.73,0.54625,0.92125,0.8375,0.85375,0.79625,0.7825,0.78,0.4874099244243951,0.5163395629503779,0.5929755697463237,0.48789048194710716,0.35549430710702523,0.35156646544817866,0.5912151750239361,0.004134678389098981
0.64075,0.62825,0.6795,0.5972500000000001,0.7290000000000001,0.5455,0.9215000000000001,0.83675,0.8534999999999999,0.797,0.7827500000000001,0.78175,0.4925244595465464,0.5189817798347882,0.5925186009725233,0.48423373810639136,0.3261301026212452,0.35023966723626937,0.590026800354507,0.0035636142644422594
0.6402500000000001,0.62775,0.679,0.597,0.728,0.5447500000000001,0.92175,0.836,0.8532500000000001,0.7977500000000001,0.7829999999999999,0.7835,0.49671919854707364,0.5177514792899408,0.6001581814986232,0.47273061458419746,0.29336641304425803,0.3528792851012268,0.5870561804865414,0.003012958486194427
0.63975,0.62725,0.6785,0.59675,0.727,0.544,0.922,0.83525,0.853,0.7985,0.78325,0.78525,0.501411916339563,0.5177749135860331,0.6062569570566524,0.45147004910420235,0.26109886510011326,0.35024245968202317,0.5894341823126826,0.0041313711685305714
0.63925,0.6267499999999999,0.6779999999999999,0.5965,0.726,0.54325,0.9222499999999999,0.8345,0.85275,0.79925,0.7835,0.787,0.496602027066612,0.5215009666647138,0.6146347179096607,0.4628812951636161,0.2777104032581583,0.3524435438096227,0.5941807775751967,0.0028206481113715012
0.63875,0.62625,0.6775,0.59625,0.725,0.5425,0.9225,0.83375,0.8525,0.8,0.78375,0.78875,0.4977210147050208,0.5188294569101881,0.5974632374480051,0.45413451104437885,0.3038405024306145,0.3511139477085955,0.5900261741108654,0.003566934514891154
0.63875,0.62625,0.6775,0.59625,0.725,0.5425,0.9225,0.83375,0.8525,0.8,0.78375,0.78875,0.49762141894662837,0.5114300779190345,0.6007967660671393,0.4455714830721481,0.33513414455594404,0.32915068143433185,0.6755195120168088,0.02626137582005569
0.63875,0.62625,0.6775,0.59625,0.725,0.5425,0.9225,0.83375,0.8525,0.8,0.78375,0.78875,0.49790848907375945,0.5079149335051848,0.593485265686332,0.449558987546377,0.37454980083473566,0.4410534215829657,0.5740505219921259,0.12124308153621592
0.63875,0.62625,0.6775,0.59625,0.725,0.5425,0.9225,0.83375,0.8525,0.8,0.78375,0.78875,0.4969945515261585,0.5031401956763724,0.5864256839885172,0.46139287148653474,0.41416758776156304,0.4410534215829657,0.5740505219921259,0.12124308153621592
0.63875,0.62625,0.6775,0.59625,0.725,0.5425,0.9225,0.83375,0.8525,0.8,0.78375,0.78875,0.49586970531372665,0.4969359657859277,0.5665182494580819,0.47791253275659773,0.45040426373896364,0.4392880841903343,0.5687150661496371,0.13360927082344054
0.6367499999999999,0.62375,0.6765000000000001,0.59425,0.7232500000000001,0.5405,0.9165000000000001,0.831,0.8482500000000001,0.79375,0.77875,0.7759999999999999,0.49498506063624115,0.49471556623117935,0.5669283496396977,0.4927416393422948,0.4726019849579689,0.47705829720413856,0.6679019506686371,0.20044997886695534
0.63475,0.62125,0.6755,0.59225,0.7215,0.5385,0.9105,0.82825,0.8440000000000001,0.7875,0.77375,0.76325,0.49478001054543325,0.4982014177749136,0.5624406819380163,0.5029584710568892,0.484748254886911,0.47705829720413856,0.6679019506686371,0.20044997886695534
0.63275,0.61875,0.6745,0.5902499999999999,0.7197499999999999,0.5365,0.9045000000000001,0.8255,0.83975,0.78125,0.76875,0.7505,0.49430546604956355,0.49981252563126133,0.5604956353623528,0.5056780594459939,0.4894707829432692,0.4788096505945446,0.6993860108413384,0.22963081193553733
0.63075,0.61625,0.6735,0.58825,0.718,0.5345,0.8985,0.8227500000000001,0.8355,0.775,0.76375,0.73775,0.49403011307047867,0.5003983830335696,0.5597457378873982,0.5058801910280767,0.4904630653467569,0.5264061917177312,0.6864398896983076,0.4301887658682859
0.62825,0.6132500000000001,0.67175,0.586,0.71575,0.532,0.89375,0.81975,0.83,0.765,0.757,0.71325,0.4936375886109321,0.5008202003632316,0.5593356377057824,0.5047776552237841,0.4896177880045739,0.5958406384412819,0.6609340471066804,0.447455380666868
0.62775,0.61275,0.6709999999999999,0.58575,0.71525,0.5315,0.895,0.8195,0.82875,0.76125,0.7552500000000001,0.7015,0.4935555685746089,0.5011482805085242,0.5592243247993438,0.503013597936916,0.48851525220028136,0.7496421927122338,0.6348844703151342,0.5362859333068365
0.62725,0.61225,0.67025,0.5855,0.71475,0.531,0.89625,0.8192499999999999,0.8275,0.7575,0.7535,0.68975,0.4938484972757631,0.5008553518073701,0.5591130118929053,0.5024807055776207,0.4884417498851783,0.8071074820807859,0.60763900393046,0.6377610195404806
0.6267499999999999,0.61175,0.6695,0.5852499999999999,0.7142499999999999,0.5305,0.8975,0.8190000000000001,0.82625,0.75375,0.7517499999999999,0.6779999999999999,0.493912941590017,0.5005448473841467,0.5590075575604898,0.5023704519612665,0.48862550596033505,0.8071074820807859,0.60763900393046,0.6377610195404806
0.62625,0.61125,0.66875,0.585,0.71375,0.53,0.89875,0.81875,0.825,0.75,0.75,0.66625,0.49406526451461713,0.5006385845685161,0.5590720018747437,0.5023520763465659,0.4889195153644469,0.8127889062063468,0.6029055671519916,0.6677091467334924
0.62625,0.61125,0.66875,0.585,0.71375,0.53,0.89875,0.81875,0.825,0.75,0.75,0.66625,0.49416486027300954,0.5007674731970239,0.5590778604487667,0.5018008084264571,0.4893237783849128,0.8254030640968365,0.5970100800397579,0.7431146877853958
0.62575,0.6104999999999999,0.66825,0.58475,0.7125,0.52975,0.89625,0.818,0.8220000000000001,0.7465,0.74725,0.6575,0.4943581932157713,0.5009256546956471,0.5591247290409515,0.5007350238515659,0.48993017305931125,0.8254030640968365,0.5970100800397579,0.7431146877853958
0.62525,0.60975,0.6677500000000001,0.5845,0.71125,0.5295000000000001,0.89375,0.8172499999999999,0.8190000000000001,0.743,0.7445,0.64875,0.4943874860858867,0.5010486847501319,0.5594293748901518,0.4996324880472734,0.4907386992439427,0.8310900785572692,0.5958361163416578,0.7670684362394123
0.62475,0.609,0.6672499999999999,0.5842499999999999,0.71,0.52925,0.89125,0.8165,0.816,0.7395,0.74175,0.64,0.4943933446599098,0.5011482805085242,0.559798465053606,0.4984013231197007,0.49196986417151534,0.8393747697627116,0.5994206612704063,0.8084147143341326
