C0,C1,C2,C3,C4,C5,C6,C7,C8,C9,C10,C11,Ax,Ay,Az,Gr,Gp,Fx_norm,Fy_norm,Fz_norm
0.63,0.57,0.695,0.56,0.815,0.52875,0.8170833333333333,0.82,0.74125,0.71,0.72375,0.66125,0.4970448811848958,0.5003509521484375,0.53094482421875,0.5001484913195884,0.4995248277773173,0.3526903322317044,0.14189251767449648,0.25247261666499105
0.63,0.57,0.695,0.56,0.815,0.52875,0.816875,0.82,0.74125,0.71,0.72375,0.66125,0.4970703125,0.5003395080566406,0.5309600830078125,0.5001262176216501,0.49948770495467787,0.3526903322317044,0.14189251767449648,0.25247261666499105
0.63,0.57,0.695,0.56,0.815,0.52875,0.81675,0.82,0.74125,0.71,0.72375,0.66125,0.4970794677734375,0.5003662109375,0.5309539794921875,0.5001247327084541,0.4994476122969375,0.3526903322317044,0.14189251767449648,0.25247261666499105
0.63,0.57,0.695,0.56,0.815,0.52875,0.8165,0.82,0.74125,0.71,0.72375,0.66125,0.4970947265625,0.500384521484375,0.53096923828125,0.5000772154861859,0.4994238536858034,0.3526903322317044,0.14189251767449648,0.25247261666499105
0.63,0.57,0.695,0.56,0.815,0.52875,0.81625,0.82,0.741,0.70975,0.7234999999999999,0.66125,0.49713134765625,0.5004119873046875,0.53096923828125,0.5000772154861859,0.4995129484833625,0.3526903322317044,0.14189251767449648,0.25247261666499105
0.63,0.57,0.695,0.56,0.815,0.52875,0.81625,0.82,0.74075,0.7095,0.7232500000000001,0.66125,0.4971099853515625,0.500439453125,0.5309844970703125,0.500089094791753,0.49963174153322704,0.3526903322317044,0.14189251767449648,0.25247261666499105
0.63,0.57,0.695,0.56,0.815,0.52875,0.81625,0.82,0.7404999999999999,0.7092499999999999,0.723,0.66125,0.497088623046875,0.500457763671875,0.5309539794921875,0.5001247327084541,0.4996911380552563,0.3526903322317044,0.14189251767449648,0.25247261666499105
0.63,0.57,0.695,0.56,0.815,0.52875,0.81625,0.82,0.7402500000000001,0.7090000000000001,0.72275,0.66125,0.497039794921875,0.500433349609375,0.5309417724609375,0.5001366120140213,0.4997505345830916,0.3526903322317044,0.14189251767449648,0.25247261666499105
0.63,0.57,0.695,0.56,0.815,0.52875,0.81625,0.82,0.74,0.70875,0.7225,0.66125,0.496990966796875,0.5004119873046875,0.53092041015625,0.5001722499307225,0.49973865527752453,0.3526903322317044,0.14189251767449648,0.25247261666499105
0.63,0.57,0.695,0.56,0.815,0.52875,0.81625,0.82,0.74,0.70875,0.7225,0.66125,0.4969970703125,0.5004241943359375,0.5309173583984375,0.5001425516668048,0.4996258018688313,0.3526903322317044,0.14189251767449648,0.25247261666499105
0.63,0.57,0.695,0.55975,0.81475,0.5285,0.816,0.82,0.74,0.70875,0.7225,0.66125,0.497052001953125,0.5003997802734375,0.5309295654296875,0.5001306723612378,0.4995723449937795,0.3526903322317044,0.14189251767449648,0.25247261666499105
0.63,0.57,0.695,0.5595,0.8145,0.52825,0.81575,0.82,0.74,0.70875,0.7225,0.66125,0.4970489501953125,0.5004058837890625,0.5309295654296875,0.5000712758334024,0.4995367070828844,0.3526903322317044,0.14189251767449648,0.25247261666499105
0.62975,0.57,0.695,0.55925,0.8142499999999999,0.5277499999999999,0.8155,0.82,0.7397499999999999,0.70875,0.7225,0.6609999999999999,0.497119140625,0.500396728515625,0.5309478759765625,0.49991684486103055,0.4994119743686241,0.3526903322317044,0.14189251767449648,0.25247261666499105
0.6295000000000001,0.57,0.695,0.5589999999999999,0.8140000000000001,0.52725,0.81525,0.82,0.7395,0.70875,0.7225,0.6607500000000001,0.49718017578125,0.5004150390625,0.5309722900390625,0.4998039914581434,0.4992219054679388,0.3526903322317044,0.14189251767449648,0.25247261666499105
0.6295000000000001,0.57,0.695,0.5589999999999999,0.8140000000000001,0.5275,0.815,0.82025,0.73875,0.7090000000000001,0.7225,0.6605,0.4971923828125,0.50040283203125,0.5310089111328125,0.499732715624741,0.4991031124122681,0.3526903322317044,0.14189251767449648,0.25247261666499105
0.6295000000000001,0.57,0.695,0.55925,0.8142499999999999,0.528,0.815,0.8205,0.738,0.7092499999999999,0.7225,0.66025,0.4971893310546875,0.5004180908203125,0.5309661865234375,0.49961986222765997,0.49891898318178474,0.35268812931372007,0.1422580787012554,0.25192055730078355
0.6295000000000001,0.57,0.695,0.5595,0.8145,0.5285,0.815,0.82075,0.73725,0.7095,0.7225,0.66,0.4972412109375,0.5004058837890625,0.5309783935546875,0.4995307674417131,0.498835828031203,0.35305322654004095,0.14542375008844383,0.25148137345884264
0.62975,0.57,0.695,0.55975,0.81475,0.52925,0.815,0.821,0.73675,0.70975,0.7225,0.66,0.4972442626953125,0.5004547119140625,0.531011962890625,0.49952482779473567,0.498835828031203,0.3506230394217445,0.14639759369859132,0.25103709650216505
0.63,0.57,0.695,0.56,0.815,0.53,0.815,0.82125,0.73625,0.71,0.7225,0.66,0.4972564697265625,0.5004241943359375,0.531011962890625,0.499495129530818,0.4989130435348073,0.34442335533818397,0.15577356518570168,0.2479296644698471
0.63,0.57,0.695,0.56,0.815,0.53,0.815,0.82125,0.73625,0.71,0.7225,0.66,0.4972259521484375,0.500384521484375,0.531024169921875,0.499429793344393,0.49897837972123227,0.3465324778748497,0.15918208658000949,0.24342577544486124
0.6305,0.57125,0.6955,0.56125,0.8155,0.53175,0.8170000000000001,0.8234999999999999,0.7365,0.71,0.72375,0.6595,0.4973297119140625,0.500335693359375,0.5310760498046875,0.4992575433962522,0.49988120694432936,0.3465324778748497,0.15918208658000949,0.24342577544486124
0.631,0.5725,0.696,0.5625,0.816,0.5335,0.8190000000000001,0.82575,0.73675,0.71,0.725,0.659,0.49735107421875,0.5002593994140625,0.5311431884765625,0.4991803279042602,0.5009206461872537,0.34481266751900164,0.1605205920634876,0.24078929452564077
0.63225,0.575,0.6970000000000001,0.565,0.8172499999999999,0.5365,0.82625,0.83,0.7432500000000001,0.7134999999999999,0.72775,0.665,0.497314453125,0.5002471923828125,0.5310272216796875,0.49875267288062136,0.5018115940931716,0.34274096887307315,0.16064188861655754,0.23826261841273216
0.633,0.57575,0.6977500000000001,0.56625,0.8177500000000001,0.5365,0.8375,0.83325,0.7567499999999999,0.72175,0.7352500000000001,0.6845,0.4973663330078125,0.5001312255859375,0.5308258056640625,0.498117130015365,0.5025362317211504,0.34274096887307315,0.16064188861655754,0.23826261841273216
0.63375,0.5765,0.6984999999999999,0.5675,0.81825,0.5365,0.84875,0.8365,0.7702500000000001,0.73,0.74275,0.7040000000000001,0.4974151611328125,0.500006103515625,0.5308013916015625,0.4975172250668098,0.5030826797772354,0.34102115851722514,0.1623463419894461,0.23629076572466462
0.634,0.5760000000000001,0.69875,0.5675,0.81825,0.5347500000000001,0.858,0.8375,0.7835,0.7382500000000001,0.7490000000000001,0.7240000000000001,0.4969818115234375,0.5000396728515625,0.5307159423828125,0.4969173201182546,0.5026134472015302,0.2801130134641276,0.16534816495426322,0.09935968412426081
0.63425,0.5755,0.6990000000000001,0.5675,0.81825,0.5329999999999999,0.86725,0.8384999999999999,0.79675,0.7465,0.7552500000000001,0.7440000000000001,0.49674072265625,0.5000091552734375,0.5306640625,0.4962401997009318,0.5018412923396709,0.5259237352622483,0.11634783172195795,0.39118747480465765
0.63375,0.57375,0.69875,0.56625,0.8175,0.53,0.87125,0.8375,0.80375,0.75125,0.76,0.7575,0.4968780517578125,0.4997772216796875,0.5309051513671875,0.49611546702150816,0.5013839391043694,0.5655982624445827,0.11416886108335071,0.44748153739316976
0.6325,0.5710000000000001,0.696,0.56225,0.815,0.512,0.87225,0.8370000000000001,0.8055,0.75125,0.7625,0.759,0.497021484375,0.499346923828125,0.5355010986328125,0.4989843193914341,0.5131682103197972,0.5655982624445827,0.11416886108335071,0.44748153739316976
0.63125,0.56825,0.69325,0.55825,0.8125,0.494,0.8732500000000001,0.8365,0.8072499999999999,0.75125,0.765,0.7605,0.4967041015625,0.4993011474609375,0.5377593994140625,0.5018353527275301,0.5307614616904396,0.5921740550014363,0.1080865430066951,0.47316478362630876
0.63,0.5655,0.6905,0.55425,0.81,0.47600000000000003,0.87425,0.836,0.809,0.75125,0.7675,0.762,0.4967498779296875,0.4992828369140625,0.5392791748046875,0.5060940839300884,0.5508256087816029,0.6139224828048002,0.10200383806738796,0.4977501143102807
0.6317499999999999,0.56725,0.691,0.5545,0.8115000000000001,0.47674999999999995,0.883,0.84325,0.81525,0.7605,0.77425,0.7702500000000001,0.495709228515625,0.4995574951171875,0.542144775390625,0.5096281772724235,0.5708838160051567,0.6139224828048002,0.10200383806738796,0.4977501143102807
0.6335000000000001,0.569,0.6915,0.55475,0.813,0.4775,0.8917499999999999,0.8504999999999999,0.8215,0.7697499999999999,0.7809999999999999,0.7785,0.4942413330078125,0.5001983642578125,0.54478759765625,0.5133998567725488,0.5914587732473161,0.7883124863504267,0.04223722000401909,0.6358403349866097
0.6365,0.5735,0.69475,0.5589999999999999,0.8170000000000001,0.49625,0.8995000000000001,0.8582500000000001,0.826,0.779,0.78525,0.78525,0.4911651611328125,0.49964599609375,0.541552734375,0.5130612964767959,0.5978201412449399,0.7786423578467203,0.04698244706376619,0.6251132598821036
0.6395000000000001,0.578,0.698,0.56325,0.821,0.515,0.9072499999999999,0.866,0.8305,0.78825,0.7895,0.792,0.489508056640625,0.501141357421875,0.5417938232421875,0.5166904244494629,0.5951651159339569,0.7437929539273975,0.051594806448089454,0.5802104864364297
0.64375,0.58725,0.7027500000000001,0.57375,0.82625,0.54,0.9157500000000001,0.8747499999999999,0.8355,0.7979999999999999,0.7945,0.79925,0.4881866455078125,0.5006927490234375,0.5336273193359375,0.5135067704181425,0.5699691088378209,0.7209888569679596,0.05329334656490242,0.5610258506328609
0.645,0.5920000000000001,0.7042499999999999,0.58,0.8275,0.54625,0.9165000000000001,0.87575,0.836,0.7985,0.79525,0.79975,0.4884552001953125,0.5003204345703125,0.52567138671875,0.506848419607159,0.5398550693994902,0.7209888569679596,0.05329334656490242,0.5610258506328609
0.64625,0.59675,0.70575,0.58625,0.82875,0.5525,0.9172499999999999,0.8767499999999999,0.8365,0.799,0.7959999999999999,0.80025,0.489019775390625,0.4997039794921875,0.5173065185546875,0.49911499171783524,0.5095687797807745,0.6429526817202795,0.06934680769500823,0.4877471904836123
0.6475,0.6015,0.7072499999999999,0.5925,0.83,0.55875,0.9179999999999999,0.87775,0.8370000000000001,0.7995,0.79675,0.8007500000000001,0.491265869140625,0.5006500244140625,0.5097259521484375,0.49276550292126864,0.48195533399593427,0.6101441827392642,0.07908062562358083,0.460629226803047
0.64875,0.60625,0.70875,0.59875,0.83125,0.565,0.91875,0.87875,0.8375,0.8,0.7975,0.80125,0.49188232421875,0.4989013671875,0.4995086669921875,0.4830007138148132,0.4596697573559524,0.31884196167377865,0.1435458054393587,0.12328093675280344
0.64875,0.60625,0.70875,0.59875,0.83125,0.565,0.91875,0.87875,0.8375,0.8,0.7975,0.80125,0.4913055419921875,0.4983245849609375,0.4988037109375,0.47913993937778215,0.4618852477687309,0.23285986982837628,0.1430399190528588,0.011219341537594423
0.64875,0.60625,0.70875,0.59875,0.83125,0.565,0.91875,0.87875,0.8375,0.8,0.7975,0.80125,0.489849853515625,0.497137451171875,0.4974853515625,0.4792527929954952,0.4744060358596435,0.21452684349637902,0.14230866854885119,0.0017581305800965688
0.64925,0.60775,0.7092499999999999,0.60075,0.83175,0.56675,0.92025,0.87925,0.83825,0.8009999999999999,0.7972499999999999,0.8022499999999999,0.488214111328125,0.495928955078125,0.4966461181640625,0.4800249479386401,0.48643977243391867,0.21452684349637902,0.14084796584769257,0.0021960531112363564
0.6497499999999999,0.60925,0.70975,0.60275,0.8322499999999999,0.5685,0.92175,0.8797499999999999,0.8390000000000001,0.802,0.797,0.80325,0.4874237060546875,0.4856231689453125,0.519183349609375,0.4821869814821729,0.5013661200124783,0.21833376006654767,0.14194336442307176,0.0015337192446705937
0.65,0.609,0.71075,0.60375,0.833,0.5685,0.9225,0.88,0.84075,0.80425,0.797,0.80525,0.48624267578125,0.4845489501953125,0.517877197265625,0.4901579954363891,0.48209194657314786,0.21382306691621816,0.14157831719827188,0.000764289129200961
0.6502500000000001,0.60875,0.71175,0.60475,0.83375,0.5685,0.92325,0.8802500000000001,0.8425,0.8065000000000001,0.797,0.8072499999999999,0.488873291015625,0.4799285888671875,0.5352783203125,0.4898491336077675,0.4694998825327107,0.26426521719920587,0.12526966423575425,0.035406060543728794
0.64425,0.59875,0.7065,0.59475,0.82675,0.547,0.919,0.87425,0.84125,0.804,0.7935,0.8057500000000001,0.4917724609375,0.47564697265625,0.551690673828125,0.489748159376907,0.4516334067740471,0.29458408456300983,0.08193775137845849,0.10932472422431452
0.63775,0.58725,0.70075,0.58275,0.8192499999999999,0.52375,0.91325,0.86775,0.8392499999999999,0.8005,0.79025,0.80325,0.495916748046875,0.476959228515625,0.5613494873046875,0.4931100027246525,0.4477488738420041,0.29458408456300983,0.08193775137845849,0.10932472422431452
0.63125,0.57575,0.695,0.57075,0.81175,0.5005,0.9075,0.86125,0.8372499999999999,0.797,0.787,0.8007500000000001,0.496893310546875,0.4875030517578125,0.54517822265625,0.4953076743358453,0.44386434090996113,0.31351741033156283,0.07585234595650196,0.13239332866991532
0.62625,0.56625,0.6895,0.5585,0.80525,0.478,0.899,0.8540000000000001,0.8295,0.7872499999999999,0.7827500000000001,0.7957500000000001,0.4994781494140625,0.4890045166015625,0.554510498046875,0.4917617015137599,0.46973152904352344,0.3571353578541049,0.10459767054190561,0.1579657245547308
0.62125,0.55675,0.684,0.54625,0.79875,0.45549999999999996,0.8905,0.84675,0.82175,0.7775,0.7785,0.7907500000000001,0.4989776611328125,0.494647216796875,0.5447784423828125,0.4961392256558667,0.4852280833705878,0.3571353578541049,0.10459767054190561,0.1579657245547308
0.6225,0.557,0.68475,0.545,0.8,0.4545,0.887,0.84575,0.8170000000000001,0.7725,0.77775,0.78925,0.498443603515625,0.5003173828125,0.5350494384765625,0.5003682584609669,0.5013958184215487,0.3571353578541049,0.10459767054190561,0.1579657245547308
0.62375,0.55725,0.6855,0.54375,0.80125,0.4535,0.8835,0.8447499999999999,0.8122499999999999,0.7675,0.777,0.7877500000000001,0.4965850830078125,0.5004730224609375,0.53201904296875,0.501069137501036,0.5039320502355967,0.3834297040663839,0.13967472325315533,0.1884552663622274
0.625,0.5575,0.68625,0.5425,0.8025,0.4525,0.88,0.84375,0.8075,0.7625,0.77625,0.78625,0.4968719482421875,0.500408935546875,0.5322601318359375,0.5013423615174664,0.5033024470057056,0.6828073724499023,0.158782904770943,0.6266000733508427
0.625,0.5575,0.68625,0.5425,0.8025,0.4525,0.88,0.84375,0.8075,0.7625,0.77625,0.78625,0.496722412109375,0.4997100830078125,0.532476806640625,0.5017106200016576,0.5056545494847603,0.6884001526287868,0.11932156029789155,0.5981586241558506
0.6265,0.5595,0.6877500000000001,0.5455,0.80425,0.45825000000000005,0.88275,0.8445,0.80825,0.76375,0.7767499999999999,0.78475,0.496624755859375,0.49990234375,0.532537841796875,0.5020729387924225,0.507685910806402,0.6763174474931606,0.09021054623523923,0.5722107850271324
0.628,0.5615,0.6892499999999999,0.5485,0.8059999999999999,0.46399999999999997,0.8855,0.8452500000000001,0.809,0.765,0.77725,0.78325,0.496435546875,0.5002685546875,0.532470703125,0.5031598952808397,0.509081729193114,0.6635551807318701,0.07352116148753107,0.549102873197181
0.6295000000000001,0.5635,0.69075,0.5515,0.8077500000000001,0.46975,0.88825,0.846,0.80975,0.76625,0.77775,0.78175,0.49622802734375,0.500225830078125,0.531390380859375,0.5042646706869647,0.5081492036654566,0.6635551807318701,0.07352116148753107,0.549102873197181
0.63225,0.568,0.6934999999999999,0.55825,0.81125,0.483,0.89325,0.8495,0.81325,0.7705,0.7805,0.7827500000000001,0.4960296630859375,0.5002532958984375,0.5303436279296875,0.5054941787957378,0.5069434540981443,0.6455806471580735,0.06486924274345517,0.5287096997531365
0.635,0.5725,0.69625,0.565,0.81475,0.49625,0.89825,0.853,0.81675,0.7747499999999999,0.78325,0.78375,0.495758056640625,0.5012542724609375,0.529022216796875,0.5056842476848108,0.5044250413179262,0.6262183738283161,0.06133261087539127,0.5128009815734341
0.63625,0.575,0.6975,0.56875,0.8165,0.50375,0.9005,0.85575,0.8195,0.77775,0.7855,0.78625,0.4954925537109375,0.5014190673828125,0.5278839111328125,0.5056129718746328,0.5009503443524677,0.4546875435346845,0.12471948963156788,0.3058816840293614
0.6375,0.5775,0.69875,0.5725,0.81825,0.51125,0.90275,0.8584999999999999,0.8222499999999999,0.78075,0.7877500000000001,0.78875,0.495306396484375,0.5013275146484375,0.52672119140625,0.5045557136443273,0.49673319100389335,0.4326180468638572,0.12398039609177386,0.27265328490928514
0.63875,0.58,0.7,0.57625,0.82,0.51875,0.905,0.86125,0.825,0.78375,0.79,0.79125,0.4952178955078125,0.5015655517578125,0.5266265869140625,0.5035459726827388,0.49449394197998064,0.4326180468638572,0.12398039609177386,0.27265328490928514
0.63875,0.58,0.7,0.57625,0.82,0.51875,0.905,0.86125,0.825,0.78375,0.79,0.79125,0.4951629638671875,0.5017608642578125,0.5266021728515625,0.5021145163793257,0.49099548668208104,0.4198447740843106,0.12336722785622777,0.2567491644780311
0.6385000000000001,0.5805,0.7,0.5760000000000001,0.81975,0.52125,0.9045000000000001,0.85925,0.826,0.78475,0.79,0.79175,0.4956085205078125,0.5011962890625,0.5279754638671875,0.5011760512511396,0.48815039308586017,0.4198447740843106,0.12336722785622777,0.2567491644780311
0.63825,0.581,0.7,0.57575,0.8195,0.52375,0.904,0.85725,0.8270000000000001,0.7857500000000001,0.79,0.7922499999999999,0.496209716796875,0.5008758544921875,0.529327392578125,0.5008968875645075,0.48671893672438593,0.408452632306772,0.12445876989454974,0.24106135676780163
0.638,0.5815,0.7,0.5755,0.8192499999999999,0.52625,0.9035,0.8552500000000001,0.828,0.78675,0.79,0.7927500000000001,0.497088623046875,0.500787353515625,0.5307220458984375,0.5009028272114848,0.486879307332123,0.3967218154612262,0.12567237918888022,0.22526036757377457
0.63775,0.5820000000000001,0.7,0.57525,0.8190000000000001,0.52875,0.903,0.8532500000000001,0.8290000000000001,0.7877500000000001,0.79,0.79325,0.498028564453125,0.5006439208984375,0.5319122314453125,0.5006355428420319,0.4879068672346437,0.3967218154612262,0.12567237918888022,0.22526036757377457
0.6375,0.5825,0.7,0.575,0.81875,0.53125,0.9025,0.85125,0.83,0.78875,0.79,0.79375,0.498681640625,0.500439453125,0.5330169677734375,0.5006949393698673,0.4908648141234357,0.3250416457573391,0.1390412432172229,0.09882687119731101
0.6375,0.5825,0.7,0.575,0.81875,0.53125,0.9025,0.85125,0.83,0.78875,0.79,0.79375,0.4986297607421875,0.500665283203125,0.5324920654296875,0.5005939652725472,0.49426229543433126,0.31984698943120954,0.14025780989518227,0.09619174941332673
0.63725,0.58375,0.69975,0.5770000000000001,0.8184999999999999,0.53675,0.897,0.8497499999999999,0.8227500000000001,0.7775,0.7825,0.7705,0.4984161376953125,0.5006195068359375,0.5319488525390625,0.5001128533912749,0.49697077716168353,0.31637874792904813,0.14062311402096167,0.0952029178223294
0.637,0.585,0.6995,0.579,0.81825,0.54225,0.8915000000000001,0.8482500000000001,0.8155,0.76625,0.775,0.74725,0.4979705810546875,0.500396728515625,0.531512451171875,0.49975647423587516,0.49879425051397325,0.31637874792904813,0.14062311402096167,0.0952029178223294
0.6367499999999999,0.58625,0.6992499999999999,0.581,0.818,0.54775,0.8859999999999999,0.84675,0.80825,0.755,0.7675,0.7240000000000001,0.4974273681640625,0.50028076171875,0.531329345703125,0.499732715624741,0.4994476122853253,0.3139573639110235,0.14123165350532976,0.09486867184760785
0.6365,0.5875,0.6990000000000001,0.583,0.8177500000000001,0.55325,0.8805,0.8452500000000001,0.8009999999999999,0.74375,0.76,0.70075,0.4971405029296875,0.5002471923828125,0.5311553955078125,0.4998455690276281,0.49936445715796807,0.3139573639110235,0.14123165350532976,0.09486867184760785
0.6367499999999999,0.5902499999999999,0.6995,0.58675,0.81825,0.56025,0.875,0.8434999999999999,0.7927500000000001,0.7315,0.75225,0.6755,0.4971038818359375,0.500225830078125,0.5310821533203125,0.5000772154861859,0.4988714659595165,0.31394195205679876,0.1419622632680708,0.09443042184743718
0.63725,0.59175,0.70025,0.5885,0.8190000000000001,0.56175,0.875,0.84325,0.79175,0.7304999999999999,0.752,0.6735,0.497100830078125,0.500177001953125,0.5311187744140625,0.5003563791612059,0.4982953196337076,0.31394195205679876,0.1419622632680708,0.09443042184743718
0.63775,0.59325,0.701,0.5902499999999999,0.81975,0.56325,0.875,0.843,0.7907500000000001,0.7295,0.7517499999999999,0.6715000000000001,0.497149658203125,0.5001373291015625,0.5311187744140625,0.500688999728696,0.4976716560856305,0.35959379289542576,0.17453270743207777,0.2597689021077344
0.63825,0.59475,0.70175,0.5920000000000001,0.8205,0.56475,0.875,0.8427500000000001,0.78975,0.7284999999999999,0.7515000000000001,0.6695,0.4972503662109375,0.5000640869140625,0.5310760498046875,0.5010869564477743,0.4972974579544618,0.36482147584798946,0.16149945128746462,0.24818028442838858
0.63875,0.59625,0.7025,0.59375,0.82125,0.56625,0.875,0.8425,0.78875,0.7275,0.75125,0.6675,0.49735107421875,0.5000244140625,0.531011962890625,0.501473033878704,0.4969767167157632,0.36482147584798946,0.16149945128746462,0.24818028442838858
0.63875,0.59625,0.7025,0.59375,0.82125,0.56625,0.875,0.8425,0.78875,0.7275,0.75125,0.6675,0.49739990234375,0.50006103515625,0.5310150146484375,0.5017997147759923,0.4967450702513993,0.36587273488226213,0.15614041222854042,0.23985185337120124
0.6395000000000001,0.5975,0.703,0.595,0.8220000000000001,0.5675,0.8759999999999999,0.84325,0.78875,0.72725,0.75125,0.66675,0.497491455078125,0.500164794921875,0.53095703125,0.5017640768709033,0.49698265636274064,0.36587273488226213,0.15614041222854042,0.23985185337120124
0.6402500000000001,0.59875,0.7034999999999999,0.59625,0.8227500000000001,0.56875,0.877,0.8440000000000001,0.78875,0.727,0.75125,0.6659999999999999,0.4975311279296875,0.5002593994140625,0.5309356689453125,0.5016749820733442,0.49726775969635023,0.36762997341468007,0.15224169051930556,0.23503795593631108
0.6409999999999999,0.6,0.7040000000000001,0.5975,0.8234999999999999,0.57,0.878,0.8447499999999999,0.78875,0.72675,0.75125,0.66525,0.4975372314453125,0.5003387451171875,0.5308837890625,0.5014433356322047,0.49760631989920556,0.3085931814742535,0.15319985108024464,0.1752601196131143
0.6417499999999999,0.60125,0.7045,0.59875,0.8242499999999999,0.57125,0.879,0.8454999999999999,0.78875,0.7265,0.75125,0.6645,0.4976226806640625,0.5004425048828125,0.530865478515625,0.5010631978540586,0.49802209558244065,0.3044607902006528,0.1618441852006959,0.17162733359357313
0.64275,0.603,0.705,0.6004999999999999,0.825,0.5735,0.8802500000000001,0.84625,0.7875,0.72575,0.75125,0.662,0.4976531982421875,0.500469970703125,0.5308319091796875,0.5005226894565632,0.4985863626259069,0.31897368674040827,0.16989077874501213,0.1940754966196898
0.643,0.6035,0.705,0.601,0.825,0.5745,0.8805,0.84625,0.78625,0.7252500000000001,0.75125,0.66025,0.4977203369140625,0.500482177734375,0.5308349609375,0.500077215491992,0.49890116422924025,0.3210299735321118,0.1691618418610024,0.19998824899583978
0.643,0.604,0.70525,0.6015,0.82525,0.57575,0.8805,0.846,0.7845,0.7247499999999999,0.7502500000000001,0.6575,0.49774169921875,0.5004425048828125,0.5308837890625,0.49988714659711286,0.4992159658325736,0.3210299735321118,0.1691618418610024,0.19998824899583978
0.643,0.6045,0.7055,0.602,0.8255,0.5770000000000001,0.8805,0.84575,0.7827500000000001,0.72425,0.74925,0.6547499999999999,0.497698974609375,0.5004180908203125,0.530975341796875,0.49984556902182203,0.4995723450053917,0.31963343067587896,0.16940623478518116,0.20295077112546145
0.643,0.60475,0.70575,0.60275,0.82575,0.57825,0.8805,0.846,0.7809999999999999,0.7234999999999999,0.7475,0.65225,0.497674560546875,0.5003814697265625,0.530987548828125,0.4994951295017875,0.4999821810416494,0.31963343067587896,0.16940623478518116,0.20295077112546145
0.64275,0.6045,0.706,0.603,0.826,0.5785,0.8802500000000001,0.84625,0.7805,0.7232500000000001,0.74575,0.6515000000000001,0.4977294921875,0.5004058837890625,0.531036376953125,0.4991684486044992,0.5004335946531979,0.3244850060980327,0.1647784477414468,0.2019812595134957
0.6425,0.60475,0.7065,0.6035,0.8265,0.579,0.88075,0.8475,0.78075,0.7240000000000001,0.7440000000000001,0.65425,0.49765625,0.500341796875,0.5311126708984375,0.49907935380694013,0.5009741030506933,0.33350860388834136,0.16051493570839154,0.19356008326016666
0.6425,0.605,0.70675,0.604,0.82675,0.5792499999999999,0.8815000000000001,0.8490000000000001,0.7815000000000001,0.7247499999999999,0.7432500000000001,0.6579999999999999,0.4975860595703125,0.5003265380859375,0.530975341796875,0.49904965554302244,0.5017759561938887,0.33350860388834136,0.16051493570839154,0.19356008326016666
0.6425,0.60525,0.7070000000000001,0.6045,0.8270000000000001,0.5795,0.88225,0.8504999999999999,0.7822499999999999,0.7254999999999999,0.7425,0.66175,0.4975006103515625,0.5002410888671875,0.5306884765625,0.49894274179872494,0.5022154905056763,0.3349029438265901,0.1627048337057216,0.18940082278203596
0.6425,0.60475,0.7072499999999999,0.6032500000000001,0.8270000000000001,0.57875,0.88325,0.85125,0.7855,0.7284999999999999,0.745,0.6759999999999999,0.4973663330078125,0.5001800537109375,0.5305572509765625,0.4992753623604089,0.5025005938392858,0.3321340730686209,0.1645305836316801,0.18885673021206914
0.6425,0.60425,0.7075,0.602,0.8270000000000001,0.578,0.88425,0.852,0.78875,0.7315,0.7475,0.69025,0.4972900390625,0.5001983642578125,0.53056640625,0.4995901639521301,0.5024887145221065,0.3307595465347331,0.16854815831231507,0.18665928743882249
0.6425,0.6032500000000001,0.7075,0.6004999999999999,0.82675,0.5770000000000001,0.8845000000000001,0.85175,0.79125,0.7334999999999999,0.75,0.701,0.49720458984375,0.500225830078125,0.530511474609375,0.4996198622102417,0.50239368007757,0.3307595465347331,0.16854815831231507,0.18665928743882249
0.6425,0.6022500000000001,0.7075,0.599,0.8265,0.5760000000000001,0.8847499999999999,0.8515,0.79375,0.7354999999999999,0.7525,0.71175,0.497308349609375,0.500152587890625,0.53067626953125,0.4992337847735059,0.5022867662926298,0.27106740363730647,0.18971060922207025,0.11686629784699269
0.6425,0.60125,0.7075,0.5975,0.82625,0.575,0.885,0.85125,0.79625,0.7375,0.755,0.7225,0.497509765625,0.5001312255859375,0.5309722900390625,0.4987942504617183,0.5025005937696125,0.27246834804367537,0.18970868095354165,0.11128434608283681
0.6425,0.60125,0.7075,0.5975,0.82625,0.575,0.885,0.85125,0.79625,0.7375,0.755,0.7225,0.4976287841796875,0.5001190185546875,0.5310760498046875,0.49817058694267174,0.5029876452862501,0.35226396902759033,0.20129897416522297,0.1943746118277851
0.64,0.59675,0.70525,0.5935,0.82325,0.5675,0.8825,0.8497499999999999,0.79475,0.73625,0.7547499999999999,0.723,0.4974578857421875,0.4996551513671875,0.5310302734375,0.4971667856048363,0.5027441195279313,0.36846364501092715,0.20800294727684213,0.22333927536065454
0.6375,0.59225,0.703,0.5895,0.82025,0.56,0.88,0.8482500000000001,0.79325,0.735,0.7545000000000001,0.7234999999999999,0.4975341796875,0.499407958984375,0.531451416015625,0.49692325984651753,0.5028450936194453,0.38123691779047375,0.2086154732599394,0.23771412582455795
0.6317499999999999,0.58275,0.6970000000000001,0.5802499999999999,0.81325,0.5347500000000001,0.8747499999999999,0.8445,0.78975,0.732,0.75375,0.721,0.4974884033203125,0.5,0.5328887939453125,0.4987229745992854,0.5059396525745135,0.38123691779047375,0.2086154732599394,0.23771412582455795
0.626,0.57325,0.691,0.5710000000000001,0.80625,0.5095000000000001,0.8695,0.84075,0.78625,0.7290000000000001,0.753,0.7184999999999999,0.4975860595703125,0.499676513671875,0.5394195556640625,0.49909717273045406,0.5196067937397396,0.38123691779047375,0.2086154732599394,0.23771412582455795
0.62025,0.56375,0.685,0.56175,0.79925,0.48424999999999996,0.86425,0.8370000000000001,0.7827500000000001,0.726,0.75225,0.716,0.49796142578125,0.4985076904296875,0.545330810546875,0.498657638389636,0.5390116391338804,0.6508963954000175,0.24231846992569261,0.5883072622934634
0.62125,0.5615,0.6822499999999999,0.55725,0.8,0.46725,0.87,0.8370000000000001,0.78875,0.733,0.75775,0.7240000000000001,0.498870849609375,0.4998443603515625,0.554669189453125,0.5014136372811955,0.5649263435375095,0.6664121167792195,0.2486572658508399,0.6158396734159125
0.62225,0.55925,0.6795,0.55275,0.8007500000000001,0.45025,0.87575,0.8370000000000001,0.79475,0.74,0.76325,0.732,0.50006103515625,0.4995147705078125,0.5636383056640625,0.5037241622778571,0.5977548036882737,0.676033806802267,0.2536548573210419,0.6408566915374215
0.6265,0.562,0.6805,0.5535,0.8055,0.451,0.88425,0.8392499999999999,0.8027500000000001,0.74875,0.76925,0.743,0.50155029296875,0.5011444091796875,0.5748016357421875,0.5037004036899474,0.6334639975466683,0.676033806802267,0.2536548573210419,0.6408566915374215
0.63075,0.56475,0.6815000000000001,0.55425,0.81025,0.45175,0.89275,0.8415,0.8107500000000001,0.7575,0.7752500000000001,0.754,0.498992919921875,0.5053741455078125,0.575738525390625,0.5098954614328566,0.6650213715256555,0.7050199730730563,0.25682695576626496,0.675335568616587
0.63875,0.57375,0.685,0.56225,0.81875,0.47275,0.9077500000000001,0.85275,0.8227500000000001,0.774,0.78425,0.7697499999999999,0.495599365234375,0.5088958740234375,0.5777008056640625,0.5160311229382358,0.6884592423732917,0.7257589758546861,0.25548999168866393,0.6867791195966242
0.6425,0.58,0.6875,0.5695,0.8225,0.493,0.91425,0.86175,0.82675,0.78175,0.7872499999999999,0.7745000000000001,0.4918853759765625,0.5102783203125,0.576214599609375,0.5194523631273463,0.7062841417643346,0.7257589758546861,0.25548999168866393,0.6867791195966242
0.64625,0.58625,0.69,0.57675,0.82625,0.51325,0.9207500000000001,0.87075,0.83075,0.7895,0.79025,0.77925,0.496514892578125,0.510968017578125,0.5623291015625,0.5221252069612219,0.6960976379547261,0.7413209327965625,0.2543945931132848,0.6942689808640363
0.65,0.5925,0.6925,0.584,0.83,0.5335,0.9272499999999999,0.8797499999999999,0.83475,0.7972499999999999,0.79325,0.784,0.5094146728515625,0.5065277099609375,0.53245849609375,0.5189712513041351,0.6748336804090662,0.7606898063086077,0.2529346626262469,0.7027490911360686
0.65375,0.59875,0.695,0.59125,0.83375,0.55375,0.93375,0.88875,0.83875,0.805,0.79625,0.78875,0.5202484130859375,0.50618896484375,0.507635498046875,0.5071275836189331,0.6477666841898987,0.6443007903816863,0.3282460280112648,0.5943989924521662
0.65375,0.59875,0.695,0.59125,0.83375,0.55375,0.93375,0.88875,0.83875,0.805,0.79625,0.78875,0.5368316650390625,0.5111419677734375,0.506951904296875,0.4949928729995929,0.609040147251631,0.22247715735840456,0.14681374457294602,0.009123269855533817
0.65375,0.59875,0.695,0.59125,0.83375,0.55375,0.93375,0.88875,0.83875,0.805,0.79625,0.78875,0.5568939208984375,0.51429443359375,0.4989990234375,0.48694464321663045,0.5606497954377685,0.2217998029365574,0.1412118555069024,0.0029730004448194993
0.65375,0.59875,0.695,0.59125,0.83375,0.55375,0.93375,0.88875,0.83875,0.805,0.79625,0.78875,0.5689453125,0.518231201171875,0.5016448974609375,0.4829947739820403,0.5238952244545284,0.21488313333659545,0.14206453252565196,0.0012121127419926095
0.65325,0.6022500000000001,0.69625,0.59575,0.8340000000000001,0.55925,0.93375,0.8885,0.8372499999999999,0.804,0.7955,0.78825,0.5570587158203125,0.5222503662109375,0.5184814453125,0.4875386084253105,0.4736992177299832,0.21488313333659545,0.14206453252565196,0.0012121127419926095
0.65325,0.60675,0.69825,0.60125,0.83475,0.5655,0.93325,0.88875,0.8372499999999999,0.80475,0.7955,0.79,0.5442138671875,0.517926025390625,0.531646728515625,0.49787954389241146,0.44164291173273335,0.2155714980625315,0.14230815323570992,0.0009873413293907244
0.65325,0.61125,0.70025,0.60675,0.8355,0.57175,0.9327500000000001,0.889,0.8372499999999999,0.8055,0.7955,0.79175,0.5248504638671875,0.50992431640625,0.5198333740234375,0.509681633909425,0.4271085816907632,0.21592118343462763,0.14279526922770053,0.001655052764724174
0.6535,0.61625,0.7027500000000001,0.61225,0.8365,0.5785,0.9327500000000001,0.89,0.838,0.80675,0.7959999999999999,0.7945,0.50069580078125,0.503643798828125,0.5152374267578125,0.5177476825868708,0.4264492799937406,0.21592118343462763,0.14279526922770053,0.001655052764724174
0.65375,0.62125,0.70525,0.61775,0.8375,0.5852499999999999,0.9327500000000001,0.8909999999999999,0.83875,0.8079999999999999,0.7965000000000001,0.7972499999999999,0.474468994140625,0.4984588623046875,0.5118316650390625,0.522968637296505,0.4386552660981169,0.21696363936862845,0.1419428491099305,0.0007653221829869297
0.6545000000000001,0.62275,0.7065,0.61875,0.83825,0.5865,0.9327500000000001,0.89225,0.841,0.81025,0.7977500000000001,0.8005,0.4622039794921875,0.495037841796875,0.504986572265625,0.5263839376063939,0.47296864073372,0.21453124504651497,0.14157844564876165,0.0020900960660373818
0.6547499999999999,0.6232500000000001,0.7070000000000001,0.61875,0.8384999999999999,0.5870000000000001,0.93325,0.893,0.84175,0.8107500000000001,0.79825,0.8015000000000001,0.4560302734375,0.4934478759765625,0.5011627197265625,0.5279341870003144,0.49309218383016906,0.21349099203049848,0.1425525476710709,0.0016486587931381976
0.655,0.62375,0.7075,0.61875,0.83875,0.5875,0.93375,0.89375,0.8425,0.81125,0.79875,0.8025,0.4496368408203125,0.49005126953125,0.4975616455078125,0.528153953984928,0.5153421234243658,0.21488093041861114,0.1427956545791698,0.002195240682772037
0.655,0.62375,0.7075,0.61875,0.83875,0.5875,0.93375,0.89375,0.8425,0.81125,0.79875,0.8025,0.4445556640625,0.4867340087890625,0.494012451171875,0.5280232814727316,0.5333808495492098,0.21488093041861114,0.1427956545791698,0.002195240682772037
0.655,0.62275,0.708,0.61775,0.83875,0.58675,0.93325,0.894,0.8422499999999999,0.8109999999999999,0.79925,0.8027500000000001,0.452325439453125,0.4846923828125,0.502081298828125,0.5190365868170518,0.5342599181843971,0.21625765987048323,0.1424306073543699,0.0019786816661839677
0.6465000000000001,0.60925,0.7,0.60625,0.8284999999999999,0.573,0.9225,0.882,0.833,0.795,0.7915000000000001,0.79125,0.461981201171875,0.48687744140625,0.5092498779296875,0.5128355893400736,0.534883581720862,0.21383627585245865,0.1413349518780112,0.001758344961305347
0.638,0.59575,0.6920000000000001,0.59475,0.81825,0.55925,0.91175,0.87,0.82375,0.779,0.78375,0.7797499999999999,0.4720611572265625,0.488751220703125,0.5170623779296875,0.5065633161574272,0.5306129715030421,0.21383627585245865,0.1413349518780112,0.001758344961305347
0.63125,0.5825,0.6857500000000001,0.5835,0.8105,0.54225,0.9017499999999999,0.8575,0.8155,0.76425,0.77725,0.768,0.483587646484375,0.4925506591796875,0.525018310546875,0.5022154903895542,0.5196602513289426,0.215224011322587,0.14206543167908026,0.0018700944618831568
0.6245,0.5692499999999999,0.6795,0.57225,0.8027500000000001,0.52525,0.8917499999999999,0.845,0.8072499999999999,0.7495,0.77075,0.75625,0.4951446533203125,0.49630126953125,0.5329986572265625,0.4979033025035456,0.508428367421762,0.2152064008362105,0.14109223032138157,0.0016457802571019312
0.61775,0.557,0.6727500000000001,0.562,0.795,0.509,0.88225,0.8322499999999999,0.79925,0.735,0.76375,0.74425,0.4951019287109375,0.4992156982421875,0.5298797607421875,0.5020373008873336,0.5098301254554515,0.21762338330409917,0.14145894891373054,0.0023127479492127023
0.6195,0.55725,0.6745,0.56225,0.7975,0.50575,0.883,0.83175,0.80025,0.73625,0.765,0.7440000000000001,0.4944549560546875,0.4987060546875,0.5290069580078125,0.5027678781564838,0.5068781179930049,0.2193586012283394,0.1423108537183593,0.0021982482638077607
0.62125,0.5575,0.67625,0.5625,0.8,0.5025,0.88375,0.83125,0.80125,0.7375,0.76625,0.74375,0.49429931640625,0.49920654296875,0.5281951904296875,0.5030945590479659,0.5027975764784625,0.21658313028808265,0.14109300102432012,0.0019740339648325715
0.62125,0.5579999999999999,0.67625,0.5625,0.8005,0.50475,0.88275,0.831,0.8005,0.7384999999999999,0.7655,0.7434999999999999,0.4946990966796875,0.4991058349609375,0.529327392578125,0.5027263005637747,0.5034331192159845,0.21381866108024952,0.1414574059966712,0.00033150134021696413
0.62125,0.5585,0.67625,0.5625,0.8009999999999999,0.507,0.8817499999999999,0.83075,0.79975,0.7395,0.7647499999999999,0.7432500000000001,0.4949798583984375,0.5000335693359375,0.5297943115234375,0.5035400329893126,0.5053932046693872,0.2158947655621466,0.1418228385729404,0.0023080169930229494
0.62125,0.5589999999999999,0.67625,0.5625,0.8015000000000001,0.50925,0.88075,0.8305,0.799,0.7404999999999999,0.764,0.743,0.4951080322265625,0.500311279296875,0.5297393798828125,0.5034212399568664,0.5081195052796107,0.21382967138433845,0.1417012851188909,0.0015349472535363892
0.62125,0.5595,0.67625,0.5625,0.802,0.5115,0.8797499999999999,0.83025,0.79825,0.7415,0.76325,0.74275,0.4951446533203125,0.5001556396484375,0.52996826171875,0.5031598952576153,0.5110952713299669,0.21555388329032238,0.14133572258094976,0.002195576477286751
0.622,0.55975,0.6772499999999999,0.56375,0.804,0.51525,0.8802500000000001,0.83175,0.79975,0.74275,0.76375,0.74575,0.4952301025390625,0.500543212890625,0.5300628662109375,0.502500593792837,0.5089688755754009,0.21589696419429824,0.14230995305374874,0.0014255913295614007
0.62275,0.5595,0.67825,0.565,0.8055,0.5167499999999999,0.8817499999999999,0.8334999999999999,0.802,0.743,0.765,0.7490000000000001,0.4950225830078125,0.50101318359375,0.5299774169921875,0.5015918269227625,0.5020254217095009,0.21589696419429824,0.14230995305374874,0.0014255913295614007
0.6235,0.55925,0.67925,0.56625,0.807,0.51825,0.88325,0.83525,0.80425,0.7432500000000001,0.76625,0.75225,0.495074462890625,0.5002685546875,0.530804443359375,0.49941791403882596,0.49467807129174957,0.21589696419429824,0.14230995305374874,0.0014255913295614007
0.6245,0.56,0.68025,0.5670000000000001,0.80825,0.51975,0.88375,0.836,0.805,0.74275,0.7675,0.7555,0.4953125,0.500048828125,0.5321563720703125,0.4980161560051365,0.4871762899596874,0.21486331993223462,0.14145766289765074,0.0007666736865296297
0.6255,0.5607500000000001,0.68125,0.56775,0.8095,0.52125,0.88425,0.83675,0.8057500000000001,0.74225,0.76875,0.75875,0.4959320068359375,0.5000396728515625,0.533740234375,0.4971905442856437,0.4822938954064597,0.21277620943208136,0.14194464892796935,0.003078356667601651
0.62575,0.56175,0.68125,0.56725,0.80925,0.52125,0.88325,0.83575,0.80425,0.7415,0.76875,0.75875,0.4962615966796875,0.4994384765625,0.535052490234375,0.497748871658908,0.4849132823710895,0.21277620943208136,0.14194464892796935,0.003078356667601651
0.626,0.56275,0.68125,0.56675,0.809,0.52125,0.88225,0.83475,0.8027500000000001,0.74075,0.76875,0.75875,0.4963623046875,0.499237060546875,0.53455810546875,0.4989902590848604,0.48895818572507416,0.21277620943208136,0.14194464892796935,0.003078356667601651
0.62625,0.56475,0.68125,0.5665,0.809,0.522,0.8797499999999999,0.83325,0.8007500000000001,0.7395,0.768,0.7575,0.4963287353515625,0.49959716796875,0.5334442138671875,0.49914469004562007,0.49129246917029895,0.2159079744983871,0.14133572258094976,0.0012085730237817087
0.62625,0.56575,0.68125,0.56675,0.80925,0.5227499999999999,0.87825,0.8327500000000001,0.80025,0.7390000000000001,0.76725,0.75625,0.496331787109375,0.5000335693359375,0.532330322265625,0.4988417677710782,0.4936148733215689,0.21416835073817836,0.14133610944360125,0.0018689712153556323
0.62625,0.56675,0.68125,0.5670000000000001,0.8095,0.5235,0.8767499999999999,0.8322499999999999,0.79975,0.7384999999999999,0.7665000000000001,0.755,0.4961212158203125,0.50042724609375,0.5314056396484375,0.49784984570397317,0.493995011099715,0.21555828912629094,0.14170102670672916,0.0010981895963433
0.62625,0.56775,0.68125,0.56725,0.80975,0.52425,0.8752500000000001,0.83175,0.79925,0.738,0.76575,0.75375,0.4961090087890625,0.5007476806640625,0.5309783935546875,0.49621050155894236,0.4934960802891226,0.21486551856438632,0.14182258167196085,0.0006635833829314777
0.62625,0.56875,0.68125,0.5675,0.81,0.525,0.87375,0.83125,0.79875,0.7375,0.765,0.7525,0.496197509765625,0.5006500244140625,0.53095703125,0.49419695928274293,0.49258731341904816,0.2152108023863465,0.14157934480218995,0.0015415646256052961
0.62625,0.56875,0.68125,0.5675,0.81,0.525,0.87375,0.83125,0.79875,0.7375,0.765,0.7525,0.4962188720703125,0.5004058837890625,0.531121826171875,0.4936920887787243,0.4929080546345223,0.2152108023863465,0.14157934480218995,0.0015415646256052961
0.62625,0.56875,0.68125,0.5675,0.81,0.525,0.87375,0.83125,0.79875,0.7375,0.765,0.7525,0.4962249755859375,0.5001922607421875,0.53115234375,0.4936386319094786,0.49320503726208675,0.21451803611027445,0.14145753444716097,0.0010957876942566437
0.6267499999999999,0.57,0.682,0.569,0.8105,0.52825,0.8732500000000001,0.8320000000000001,0.79825,0.7375,0.764,0.75125,0.4961883544921875,0.499786376953125,0.5308868408203125,0.49382276119802304,0.4946364935422755,0.21278281390020165,0.14194464892796935,0.000991785750178464
0.6275,0.5735,0.6835,0.5745,0.8115000000000001,0.5355,0.8740000000000001,0.8342499999999999,0.797,0.73575,0.763,0.7447499999999999,0.4962615966796875,0.4994873046875,0.530889892578125,0.49419101968221435,0.49583630339293705,0.21278281390020165,0.14194464892796935,0.000991785750178464
0.62825,0.5770000000000001,0.685,0.58,0.8125,0.54275,0.8747499999999999,0.8365,0.7957500000000001,0.7340000000000001,0.762,0.7382500000000001,0.4964508056640625,0.4993865966796875,0.53072509765625,0.4948681400879249,0.4971073891002254,0.21520199500024192,0.1414574059966712,0.0020871301124208413
0.629,0.5805,0.6865000000000001,0.5855,0.8134999999999999,0.55,0.8755,0.83875,0.7945,0.73225,0.7609999999999999,0.73175,0.49659423828125,0.499273681640625,0.5304840087890625,0.4952363985721162,0.4981230697552401,0.2141727522883143,0.14145753444716097,0.001758351899208541
0.62975,0.584,0.688,0.591,0.8145,0.55725,0.87625,0.841,0.79325,0.7304999999999999,0.76,0.7252500000000001,0.4966644287109375,0.4990997314453125,0.5306365966796875,0.49557495872852264,0.4991565693279627,0.21416835073817836,0.142309824603259,0.0013200942673443526
0.63,0.58625,0.68875,0.595,0.815,0.56125,0.8775,0.8425,0.7925,0.72875,0.76,0.72,0.4969268798828125,0.49913330078125,0.5311492919921875,0.4961451653957418,0.49912687105823894,0.21416835073817836,0.142309824603259,0.0013200942673443526
0.62975,0.5842499999999999,0.688,0.59325,0.8142499999999999,0.556,0.87775,0.8422499999999999,0.7925,0.72775,0.7602500000000001,0.7190000000000001,0.49705810546875,0.4992156982421875,0.5314910888671875,0.4981052507562468,0.5006889996996654,0.21416835073817836,0.142309824603259,0.0013200942673443526
0.6295000000000001,0.58225,0.6872499999999999,0.5915,0.8134999999999999,0.5507500000000001,0.878,0.8420000000000001,0.7925,0.72675,0.7605,0.718,0.4971954345703125,0.4993255615234375,0.5318328857421875,0.4999406034837769,0.5025124731796895,0.21520199500024192,0.14255344682449916,0.0009882606015642738
0.62925,0.5802499999999999,0.6865000000000001,0.58975,0.8127500000000001,0.5455,0.87825,0.84175,0.7925,0.72575,0.76075,0.7170000000000001,0.49730224609375,0.49957275390625,0.532550048828125,0.501716559648635,0.5049714894901334,0.21520199500024192,0.14255344682449916,0.0009882606015642738
0.629,0.57825,0.6857500000000001,0.588,0.812,0.54025,0.8785,0.8415,0.7925,0.7247499999999999,0.7609999999999999,0.716,0.497760009765625,0.5000457763671875,0.5331573486328125,0.5032252314208159,0.508303634672665,0.21347558017627366,0.14170141356938068,0.0017600731929916164
0.62875,0.57625,0.685,0.58625,0.81125,0.535,0.87875,0.84125,0.7925,0.72375,0.76125,0.715,0.498699951171875,0.5013397216796875,0.533868408203125,0.5042112137712702,0.5120515555616563,0.21624445093424274,0.14243202182093948,0.0024142016014467764
0.62875,0.57625,0.685,0.58625,0.81125,0.535,0.87875,0.84125,0.7925,0.72375,0.76125,0.715,0.498443603515625,0.501361083984375,0.53658447265625,0.503534093388784,0.5160014246568998,0.2134799860122423,0.14121468444004157,0.0009895149744622194
0.62875,0.57625,0.685,0.58625,0.81125,0.535,0.87875,0.84125,0.7925,0.72375,0.76125,0.715,0.4973907470703125,0.501861572265625,0.54129638671875,0.502833214302266,0.5220064134642871,0.21450702580618558,0.14243189337044973,0.00175548307623675
0.62875,0.57625,0.685,0.58625,0.81125,0.535,0.87875,0.84125,0.7925,0.72375,0.76125,0.715,0.4971832275390625,0.500457763671875,0.5456573486328125,0.5046032308665955,0.529983367297725,0.21450702580618558,0.14243189337044973,0.00175548307623675
0.629,0.573,0.6857500000000001,0.5845,0.8127500000000001,0.53525,0.8802500000000001,0.84075,0.7925,0.726,0.76275,0.72175,0.4955291748046875,0.501739501953125,0.5509490966796875,0.5094975048066759,0.5534271757950379,0.2138120566121293,0.14182335237489943,0.0018694235666440468
0.62925,0.56975,0.6865000000000001,0.58275,0.8142499999999999,0.5355,0.8817499999999999,0.84025,0.7925,0.7282500000000001,0.76425,0.7284999999999999,0.495184326171875,0.4987152099609375,0.5581878662109375,0.514676882150039,0.5735447804986284,0.2138120566121293,0.14182335237489943,0.0018694235666440468
0.6295000000000001,0.5665,0.6872499999999999,0.581,0.81575,0.5357500000000001,0.88325,0.83975,0.7925,0.7304999999999999,0.76575,0.7352500000000001,0.477545166015625,0.5017181396484375,0.559930419921875,0.5329472540657386,0.5794844330499176,0.2138120566121293,0.14182335237489943,0.0018694235666440468
0.62975,0.56325,0.688,0.5792499999999999,0.8172499999999999,0.536,0.8847499999999999,0.8392499999999999,0.7925,0.73275,0.76725,0.742,0.4429168701171875,0.5127288818359375,0.5595947265625,0.5665181707389652,0.5705214970750452,0.21277400651409709,0.14170179892084994,6.639573359158201e-07
0.63,0.56,0.68875,0.5775,0.81875,0.53625,0.88625,0.83875,0.7925,0.735,0.76875,0.74875,0.430908203125,0.507012939453125,0.5492279052734375,0.5912627639216351,0.5398788288234793,0.21346237124003317,0.14182373772636866,0.0007680279652336014
0.63325,0.5710000000000001,0.69075,0.584,0.82125,0.5455,0.89225,0.84375,0.7979999999999999,0.74175,0.7717499999999999,0.758,0.4196807861328125,0.4979644775390625,0.5311798095703125,0.6016630963229989,0.48216916360956424,0.21450262425604963,0.14121494134102108,0.0016488724805566526
0.6365,0.5820000000000001,0.6927500000000001,0.5905,0.82375,0.55475,0.89825,0.84875,0.8035,0.7484999999999999,0.7747499999999999,0.76725,0.40013427734375,0.491680908203125,0.5179840087890625,0.598485381892207,0.4207769129963502,0.21450262425604963,0.14121494134102108,0.0016488724805566526
0.63975,0.593,0.69475,0.597,0.82625,0.564,0.90425,0.85375,0.809,0.7552500000000001,0.77775,0.7765000000000001,0.3983795166015625,0.482611083984375,0.5083221435546875,0.5788488898479069,0.3729270712405295,0.21380985797997765,0.14133688014653983,0.0016469374993551221
0.643,0.604,0.69675,0.6035,0.82875,0.57325,0.91025,0.85875,0.8145,0.762,0.78075,0.7857500000000001,0.415582275390625,0.4698211669921875,0.49354248046875,0.5324542631343679,0.378106448328424,0.2138120566121293,0.14218852805018906,0.0012057118325034344
0.6467499999999999,0.61575,0.69975,0.611,0.8320000000000001,0.5835,0.92025,0.868,0.8225,0.773,0.78675,0.79875,0.4133941650390625,0.4765899658203125,0.4917999267578125,0.4909123315779482,0.408743177072359,0.2138120566121293,0.14218852805018906,0.0012057118325034344
0.64725,0.6164999999999999,0.70075,0.612,0.8327500000000001,0.5845,0.92425,0.87225,0.825,0.77725,0.78975,0.8025,0.4141021728515625,0.4841339111328125,0.498785400390625,0.4610299373963113,0.4528391593373103,0.2138120566121293,0.14218852805018906,0.0012057118325034344
0.64775,0.61725,0.70175,0.613,0.8334999999999999,0.5855,0.92825,0.8765000000000001,0.8275,0.7815000000000001,0.7927500000000001,0.80625,0.42415771484375,0.4925323486328125,0.500946044921875,0.44597291749135054,0.5043062489357639,0.2141595433520738,0.14182348082538918,0.0016514859886908105
0.64825,0.618,0.7027500000000001,0.614,0.8342499999999999,0.5865,0.9322499999999999,0.88075,0.83,0.7857500000000001,0.7957500000000001,0.81,0.4364044189453125,0.4991058349609375,0.5039398193359375,0.4357329563480078,0.5555951503325649,0.2134799860122423,0.14157934480218995,0.0012085556790237164
0.64875,0.61875,0.70375,0.615,0.835,0.5875,0.93625,0.885,0.8325,0.79,0.79875,0.81375,0.44847412109375,0.5011505126953125,0.5128570556640625,0.4375089122341728,0.5676823445192674,0.21244193162837743,0.14182258167196085,0.0009884819206762458
0.64875,0.61875,0.70375,0.615,0.835,0.5875,0.93625,0.885,0.8325,0.79,0.79875,0.81375,0.4583740234375,0.5023529052734375,0.519329833984375,0.4411024027894639,0.5754335914888699,0.21244193162837743,0.14182258167196085,0.0009884819206762458
0.64925,0.61975,0.7042499999999999,0.6154999999999999,0.8355,0.58775,0.93625,0.8852500000000001,0.8340000000000001,0.79125,0.79875,0.8145,0.4809967041015625,0.50267333984375,0.52138671875,0.4446840143294932,0.5908291713179927,0.21416835073817836,0.14170076980574967,0.0011003382649632857
0.6497499999999999,0.62075,0.70475,0.616,0.836,0.588,0.93625,0.8855,0.8355,0.7925,0.79875,0.81525,0.5081787109375,0.5047515869140625,0.5191070556640625,0.4480993151967683,0.6006889947760871,0.21416835073817836,0.14170076980574967,0.0011003382649632857
0.6502500000000001,0.62175,0.70525,0.6164999999999999,0.8365,0.58825,0.93625,0.88575,0.8370000000000001,0.79375,0.79875,0.816,0.5349700927734375,0.50694580078125,0.515814208984375,0.45308862348848744,0.6056961215906989,0.21556269067642694,0.1410921018708918,0.0016471664501606106
0.65125,0.62275,0.70625,0.61675,0.8372499999999999,0.589,0.93625,0.887,0.8377500000000001,0.7945,0.7985,0.81625,0.5606414794921875,0.5089752197265625,0.51177978515625,0.4572760789273166,0.6093133694333317,0.2141727522883143,0.14182258167196085,0.0012076613833016758
0.65225,0.62375,0.7072499999999999,0.617,0.838,0.58975,0.93625,0.88825,0.8384999999999999,0.79525,0.79825,0.8165,0.5819000244140625,0.5097930908203125,0.5076995849609375,0.46593015260907883,0.6046566810007576,0.2148611170142503,0.14218801424823002,0.0018669224525416778
0.65275,0.62375,0.7077500000000001,0.61675,0.83825,0.5902499999999999,0.93625,0.88925,0.8377500000000001,0.79475,0.7979999999999999,0.816,0.58489990234375,0.5106658935546875,0.505218505859375,0.4762057516633167,0.5863090937904737,0.2148611170142503,0.14218801424823002,0.0018669224525416778
0.65325,0.62375,0.70825,0.6164999999999999,0.8384999999999999,0.59075,0.93625,0.8902500000000001,0.8370000000000001,0.79425,0.7977500000000001,0.8155,0.574053955078125,0.518414306640625,0.52000732421875,0.48938584089386566,0.5031480185647962,0.21451803611027445,0.14194426357650008,0.00175869740678773
0.65275,0.618,0.7077500000000001,0.6095,0.8370000000000001,0.58125,0.9365000000000001,0.8909999999999999,0.83675,0.7965000000000001,0.79875,0.8170000000000001,0.5561737060546875,0.504620361328125,0.5164337158203125,0.4958778811598294,0.4634592594664693,0.21451803611027445,0.14194426357650008,0.00175869740678773
0.6517499999999999,0.61225,0.70675,0.60275,0.83525,0.57125,0.93675,0.89075,0.8372499999999999,0.79925,0.8,0.8190000000000001,0.536016845703125,0.4973541259765625,0.547344970703125,0.503308386542367,0.42094322487677455,0.21625325832034734,0.1419441351260103,0.001541212180122908
0.65075,0.6065,0.70575,0.596,0.8334999999999999,0.56125,0.937,0.8905,0.8377500000000001,0.802,0.80125,0.821,0.5346710205078125,0.500897216796875,0.557879638671875,0.5053694461337325,0.40506653322444036,0.21625325832034734,0.1419441351260103,0.001541212180122908
0.6497499999999999,0.60075,0.70475,0.5892499999999999,0.83175,0.55125,0.9372499999999999,0.8902500000000001,0.83825,0.80475,0.8025,0.823,0.5229949951171875,0.500592041015625,0.56973876953125,0.5015205511474211,0.4047517311450063,0.2290331355680142,0.16739362264263336,0.023733170235624896
0.64875,0.595,0.70375,0.5825,0.83,0.54125,0.9375,0.89,0.83875,0.8075,0.80375,0.825,0.5152313232421875,0.488934326171875,0.5576690673828125,0.49616298427861305,0.4737704938653031,0.572696929928209,0.5780851501953669,0.8967838296558499
0.64875,0.595,0.70375,0.5825,0.83,0.54125,0.9375,0.89,0.83875,0.8075,0.80375,0.825,0.5100830078125,0.5004547119140625,0.5629150390625,0.4946186745432822,0.4980993109234739,0.5042916206712892,0.8361242403421034,0.9567076817835124
0.6447499999999999,0.59075,0.7,0.5795,0.82525,0.5325,0.934,0.88225,0.8355,0.795,0.7979999999999999,0.8107500000000001,0.512115478515625,0.5052520751953125,0.5391143798828125,0.4945652176740365,0.5192266558919202,0.5017759354773723,0.9041610162492577,0.9252307715888023
0.642,0.5885,0.6975,0.57875,0.8215,0.5325,0.92675,0.87375,0.8277500000000001,0.77725,0.7875,0.777,0.4967315673828125,0.4997406005859375,0.5335601806640625,0.49480280378537783,0.5202423365004861,0.60540745906058,0.017901581086651273,0.3812098604488504
0.63925,0.58625,0.695,0.578,0.8177500000000001,0.5325,0.9195,0.8652500000000001,0.82,0.7595000000000001,0.777,0.7432500000000001,0.4945281982421875,0.4985260009765625,0.5282501220703125,0.4979626990429931,0.5038667141304572,0.5804392009015301,0.0,0.37626377445056536
0.63875,0.588,0.6945,0.58125,0.8172499999999999,0.537,0.9155,0.8590000000000001,0.813,0.74375,0.7667499999999999,0.71025,0.494964599609375,0.499908447265625,0.5313262939453125,0.4995842242587038,0.4869208849074138,0.4634014470573942,0.1958186385532288,0.3768048948228028
0.63825,0.58975,0.6940000000000001,0.5845,0.81675,0.5415,0.9115000000000001,0.85275,0.8059999999999999,0.728,0.7565000000000001,0.6772499999999999,0.4988983154296875,0.49962158203125,0.53515625,0.501098835730117,0.4752435275233751,0.4475316344701275,0.20519383933740062,0.36765957561712
0.6417499999999999,0.59575,0.6972499999999999,0.59075,0.821,0.55475,0.9109999999999999,0.85425,0.8022499999999999,0.7247499999999999,0.752,0.6585,0.4981903076171875,0.4994354248046875,0.533282470703125,0.5004454739355406,0.46922665932913526,0.4468873023888816,0.21566636696548022,0.35698058156934687
0.644,0.59975,0.6992499999999999,0.59475,0.8242499999999999,0.55925,0.91425,0.8565,0.8029999999999999,0.72675,0.75225,0.65925,0.4987030029296875,0.4995697021484375,0.5332366943359375,0.5000831551215511,0.46300190325844126,0.4468873023888816,0.21566636696548022,0.35698058156934687
0.64725,0.606,0.7020000000000001,0.6004999999999999,0.82875,0.5660000000000001,0.91925,0.861,0.805,0.7315,0.75375,0.66425,0.5001983642578125,0.50001220703125,0.5314239501953125,0.5018650509798356,0.4653896436658094,0.43898542272168206,0.22540700032592118,0.3480702026609811
0.64825,0.6082500000000001,0.7027500000000001,0.6022500000000001,0.83,0.56825,0.9209999999999999,0.8632500000000001,0.80625,0.73425,0.755,0.6685,0.5013031005859375,0.5003448486328125,0.53033447265625,0.5027441196034107,0.4688999781415417,0.43898542272168206,0.22540700032592118,0.3480702026609811
0.64925,0.6104999999999999,0.7034999999999999,0.604,0.83125,0.5705,0.9227500000000001,0.8654999999999999,0.8075,0.737,0.75625,0.6727500000000001,0.5018829345703125,0.500189208984375,0.5305511474609375,0.5042230931813472,0.47249940783287286,0.43246026822052214,0.23100708957392596,0.3348824080078855
0.6502500000000001,0.61275,0.7042499999999999,0.60575,0.8325,0.57275,0.9245,0.86775,0.80875,0.7397499999999999,0.7575,0.677,0.502264404296875,0.5001708984375,0.531011962890625,0.5054407220426143,0.4760038028009743,0.26839357121844626,0.20307420224678613,0.13344429057161877
0.6515000000000001,0.61575,0.7055,0.60875,0.8342499999999999,0.57625,0.92625,0.871,0.8105,0.7415,0.7585,0.67875,0.5026458740234375,0.500152587890625,0.5314727783203125,0.5066583509038813,0.4795081977690758,0.26529482849274183,0.19844474383550267,0.12281575728137518
0.6517499999999999,0.6164999999999999,0.706,0.61,0.83475,0.5775,0.92625,0.872,0.8109999999999999,0.7404999999999999,0.75825,0.67625,0.5028045654296875,0.50009765625,0.5313629150390625,0.505612971990755,0.48230577414302833,0.26529482849274183,0.19844474383550267,0.12281575728137518
0.652,0.61725,0.7065,0.61125,0.83525,0.57875,0.92625,0.873,0.8115000000000001,0.7395,0.758,0.67375,0.5031707763671875,0.5000244140625,0.5310791015625,0.5047517223197243,0.48544191085918276,0.2597636957307565,0.19905302641889125,0.1202889694682251
0.652,0.6182500000000001,0.7070000000000001,0.61225,0.83575,0.5802499999999999,0.92475,0.8732500000000001,0.8115000000000001,0.73875,0.757,0.669,0.5038665771484375,0.50020751953125,0.5297607421875,0.5034390590139207,0.4884770733444767,0.2597636957307565,0.19905302641889125,0.1202889694682251
0.652,0.61925,0.7075,0.6132500000000001,0.83625,0.58175,0.92325,0.8734999999999999,0.8115000000000001,0.738,0.7559999999999999,0.66425,0.5044036865234375,0.5002410888671875,0.5292327880859375,0.5023342835613469,0.49296745096495,0.2569948249727874,0.1984441015830539,0.11963516922259114
0.6517499999999999,0.6195,0.7075,0.613,0.83625,0.5820000000000001,0.92175,0.87275,0.8109999999999999,0.7382500000000001,0.7552500000000001,0.662,0.504541015625,0.500335693359375,0.5296234130859375,0.5010988357359232,0.4968757426242493,0.3257391821651554,0.18336962661623263,0.17798204081020075
0.6515000000000001,0.61975,0.7075,0.61275,0.83625,0.58225,0.92025,0.872,0.8105,0.7384999999999999,0.7545000000000001,0.65975,0.5040985107421875,0.500115966796875,0.5313873291015625,0.5011641719223481,0.4971073890886132,0.3298869810071483,0.18349259453685166,0.18182130646056607
0.65125,0.62,0.7075,0.6125,0.83625,0.5825,0.91875,0.87125,0.81,0.73875,0.75375,0.6575,0.5040771484375,0.50009765625,0.531817626953125,0.5012770253310413,0.4962639584281881,0.3323105679431572,0.18300676456094084,0.1822514127499645
0.65125,0.62,0.7075,0.6125,0.83625,0.5825,0.91875,0.87125,0.81,0.73875,0.75375,0.6575,0.50419921875,0.5002197265625,0.531634521484375,0.501360180481623,0.49568187242056516,0.3323105679431572,0.18300676456094084,0.1822514127499645
0.6515000000000001,0.62,0.7077500000000001,0.61275,0.83625,0.5825,0.91825,0.8715,0.80925,0.7375,0.7525,0.6559999999999999,0.50435791015625,0.5005706787109375,0.5307647705078125,0.5012532667431316,0.49619268257156124,0.33541591513698193,0.18361633316040923,0.18531883875107993
0.6517499999999999,0.62,0.708,0.613,0.83625,0.5825,0.9177500000000001,0.87175,0.8085,0.73625,0.75125,0.6545000000000001,0.504852294921875,0.5009246826171875,0.5289459228515625,0.5012770253774902,0.4972855786837314,0.33817817714099807,0.18313011783302915,0.18893606791028342
0.652,0.62,0.70825,0.6132500000000001,0.83625,0.5825,0.9172499999999999,0.872,0.8077500000000001,0.735,0.75,0.653,0.5052978515625,0.501409912109375,0.527386474609375,0.5013601805280719,0.5000475172687171,0.33990019041483044,0.1831307615966602,0.18991489782003254
0.65225,0.62,0.7084999999999999,0.6135,0.83625,0.5825,0.91675,0.87225,0.807,0.73375,0.74875,0.6515000000000001,0.504852294921875,0.5017791748046875,0.52823486328125,0.5012235685082445,0.5031658349510416,0.3343052116037942,0.17729206423006252,0.20972737084789314
0.6525,0.62025,0.70875,0.614,0.83625,0.58275,0.9165000000000001,0.872,0.80625,0.73275,0.74725,0.64925,0.50426025390625,0.501715087890625,0.529656982421875,0.5007780945436734,0.5049417911623486,0.33776904726998697,0.1753446323995648,0.21060424618879742
0.6525,0.6204999999999999,0.70875,0.61425,0.83625,0.583,0.91675,0.8715,0.80625,0.733,0.747,0.6485,0.50399169921875,0.50142822265625,0.53045654296875,0.5002910430038114,0.5042765500389806,0.33845080752780277,0.17424949072516513,0.21159023323948423
0.6525,0.62075,0.70875,0.6145,0.83625,0.58325,0.917,0.871,0.80625,0.7332500000000001,0.74675,0.64775,0.5037628173828125,0.5010711669921875,0.5311798095703125,0.4997327156305471,0.5044844379154348,0.33845080752780277,0.17424949072516513,0.21159023323948423
0.6525,0.621,0.70875,0.61475,0.83625,0.5835,0.9172499999999999,0.8704999999999999,0.80625,0.7334999999999999,0.7465,0.647,0.50352783203125,0.5005767822265625,0.531719970703125,0.4991922072214395,0.5041339983257269,0.34121527673563595,0.17449349829787458,0.21345569665098363
0.6525,0.62125,0.70875,0.615,0.83625,0.58375,0.9175,0.87,0.80625,0.73375,0.74625,0.64625,0.50382080078125,0.500067138671875,0.530914306640625,0.4989071038878299,0.5038548346855436,0.34087659738179593,0.17619962303831224,0.2165171199782534
0.6525,0.62125,0.70875,0.615,0.83625,0.58375,0.91675,0.8690000000000001,0.8075,0.73275,0.746,0.64625,0.5041229248046875,0.4998779296875,0.5300018310546875,0.49909717277690296,0.5049477307977138,0.33878948688164273,0.17668686596961036,0.2165168820081737
0.6525,0.62125,0.70875,0.615,0.83625,0.58375,0.9159999999999999,0.868,0.80875,0.73175,0.74575,0.64625,0.5041107177734375,0.4999481201171875,0.5296630859375,0.4993941554160796,0.5067949628308109,0.3626910784380278,0.1675528453361911,0.20778522209857145
0.6525,0.62125,0.70875,0.615,0.83625,0.58375,0.91525,0.867,0.81,0.73075,0.7454999999999999,0.64625,0.50386962890625,0.500048828125,0.5300262451171875,0.499887146602919,0.5077809450651432,0.3623457946160676,0.16657861637457436,0.20855715124677257
0.6525,0.62125,0.70875,0.615,0.83625,0.58375,0.9145,0.866,0.81125,0.7297499999999999,0.7452500000000001,0.64625,0.5035797119140625,0.5000701904296875,0.530645751953125,0.5004395343059814,0.5081789018306704,0.3599134045797868,0.16657912866535113,0.2102063983741018
0.6525,0.62125,0.70875,0.615,0.83625,0.58375,0.91375,0.865,0.8125,0.72875,0.745,0.64625,0.5033050537109375,0.5001861572265625,0.5311126708984375,0.5009028272347092,0.5081076259740436,0.3599134045797868,0.16657912866535113,0.2102063983741018
0.6525,0.62125,0.70875,0.61475,0.83625,0.584,0.9135,0.86425,0.8107500000000001,0.728,0.74375,0.6452500000000001,0.502984619140625,0.5004730224609375,0.5315032958984375,0.5007246376512032,0.5077037296079877,0.3543822675319689,0.1680406020694483,0.20877132570603193
0.6525,0.62125,0.70875,0.6145,0.83625,0.5842499999999999,0.91325,0.8634999999999999,0.809,0.72725,0.7425,0.64425,0.502618408203125,0.50047607421875,0.53214111328125,0.5004395343292058,0.50686623859454,0.3543822675319689,0.1680406020694483,0.20877132570603193
0.6525,0.62125,0.70875,0.61425,0.83625,0.5845,0.9129999999999999,0.86275,0.8072499999999999,0.7265,0.74125,0.64325,0.5025634765625,0.5003173828125,0.532275390625,0.5001128534203054,0.5058327390914907,0.3540479940140976,0.1705974770712891,0.2089868488936728
0.6525,0.62125,0.70875,0.614,0.83625,0.58475,0.9127500000000001,0.862,0.8055,0.72575,0.74,0.64225,0.502587890625,0.5002899169921875,0.5318939208984375,0.4998039914755617,0.5049596101497297,0.3450244005096215,0.17169441856372764,0.21534761706253294
0.6525,0.62125,0.70875,0.61375,0.83625,0.585,0.9125,0.86125,0.80375,0.725,0.73875,0.64125,0.5025848388671875,0.5003753662109375,0.53165283203125,0.49960798292789904,0.5043894034825105,0.34814075372170245,0.17120820172516532,0.21556603613096803
0.6525,0.62125,0.70875,0.61375,0.83625,0.58475,0.9115000000000001,0.8604999999999999,0.8045,0.7247499999999999,0.7384999999999999,0.64075,0.5026214599609375,0.500262451171875,0.531634521484375,0.49991684487264276,0.5038607743905822,0.35194767457770376,0.1718171280721849,0.21699415840761552
0.6525,0.62125,0.70875,0.61375,0.83625,0.5845,0.9105,0.8597499999999999,0.80525,0.7245,0.7382500000000001,0.6402500000000001,0.5025360107421875,0.5002777099609375,0.5316802978515625,0.5004157756832351,0.5033856021214507,0.35645176754574565,0.17157466190535256,0.2172171113957896
0.6525,0.62125,0.70875,0.61375,0.83625,0.5842499999999999,0.9095,0.8590000000000001,0.8059999999999999,0.72425,0.738,0.63975,0.5026275634765625,0.500506591796875,0.5311492919921875,0.5008434306836496,0.5027559989380083,0.35645176754574565,0.17157466190535256,0.2172171113957896
0.6525,0.62125,0.70875,0.6135,0.83625,0.5842499999999999,0.9085,0.8584999999999999,0.8055,0.72375,0.73775,0.6385000000000001,0.5027099609375,0.5007659912109375,0.530816650390625,0.501104775406125,0.5025659300489352,0.3571423309038334,0.17133078278313285,0.21732627236468477
0.6525,0.62125,0.70875,0.6132500000000001,0.83625,0.5842499999999999,0.9075,0.858,0.805,0.7232500000000001,0.7375,0.63725,0.5027435302734375,0.50093994140625,0.530499267578125,0.5010216202671555,0.5028272747946352,0.3571423309038334,0.17133078278313285,0.21732627236468477
0.6525,0.62125,0.70875,0.613,0.83625,0.5845,0.9075,0.8582500000000001,0.80375,0.723,0.7375,0.6365,0.502685546875,0.500994873046875,0.5302581787109375,0.5008909479059178,0.5032965073238915,0.3699310155376049,0.16950734798835446,0.22610495946352444
0.6525,0.62125,0.70875,0.61275,0.83625,0.58475,0.9075,0.8584999999999999,0.8025,0.72275,0.7375,0.63575,0.5027679443359375,0.5009124755859375,0.52989501953125,0.5006652411117557,0.5038370157562235,0.3720115215696379,0.17303922265475058,0.22742911171044847
0.6525,0.62125,0.70875,0.6125,0.83625,0.585,0.9075,0.85875,0.80125,0.7225,0.7375,0.635,0.502484130859375,0.500762939453125,0.530230712890625,0.5006177238894874,0.5045735326781573,0.3720269334238627,0.18107514423014126,0.22656503888231286
0.6525,0.62125,0.70875,0.6125,0.83625,0.585,0.9075,0.85875,0.80125,0.7225,0.7375,0.635,0.5022796630859375,0.500531005859375,0.530615234375,0.5006949393698673,0.5050427652538625,0.37063479211776573,0.17949224431130217,0.2261215445211159
0.6525,0.62175,0.70875,0.6132500000000001,0.83625,0.5852499999999999,0.9059999999999999,0.8582500000000001,0.8015000000000001,0.72225,0.73725,0.6345000000000001,0.5020965576171875,0.5005767822265625,0.5308380126953125,0.5011998098738859,0.5052031358615996,0.37132315684370176,0.1782747784799145,0.22743711250041476
0.6525,0.62225,0.70875,0.614,0.83625,0.5855,0.9045000000000001,0.85775,0.80175,0.722,0.737,0.634,0.502020263671875,0.5006103515625,0.5307952880859375,0.5012592064017213,0.5064326439471483,0.36959233618376486,0.17791063191972517,0.22973784400129102
0.65225,0.62275,0.70875,0.61425,0.83625,0.58575,0.90325,0.85625,0.8009999999999999,0.72175,0.73725,0.63425,0.5019775390625,0.5007110595703125,0.5302825927734375,0.5011938702211024,0.5073532900182799,0.36959233618376486,0.17791063191972517,0.22973784400129102
0.652,0.6232500000000001,0.70875,0.6145,0.83625,0.586,0.902,0.8547499999999999,0.80025,0.7215,0.7375,0.6345000000000001,0.502154541015625,0.50098876953125,0.529443359375,0.5007602755737106,0.5093549530469733,0.36959233618376486,0.17791063191972517,0.22973784400129102
0.6517499999999999,0.62375,0.70875,0.615,0.83625,0.5865,0.90125,0.8532500000000001,0.8007500000000001,0.72375,0.7397499999999999,0.6402500000000001,0.5021881103515625,0.5012664794921875,0.528656005859375,0.5001366120372457,0.5118555467933615,0.37342567919807995,0.19288553660043242,0.22230711795177513
0.6515000000000001,0.62375,0.70875,0.61475,0.83625,0.58675,0.902,0.85225,0.8009999999999999,0.72625,0.74225,0.6465000000000001,0.502093505859375,0.501458740234375,0.5281158447265625,0.4988477073425762,0.515187691859771,0.30920522837811465,0.20832119923263193,0.14479123333101462
0.65125,0.62375,0.70875,0.6145,0.83625,0.5870000000000001,0.90275,0.85125,0.80125,0.72875,0.7447499999999999,0.65275,0.5018310546875,0.5018829345703125,0.5276153564453125,0.497493466473094,0.5182169146980875,0.30093384564862563,0.20977766004526402,0.12868556750568985
0.65125,0.62375,0.70875,0.61475,0.83625,0.58725,0.90325,0.85125,0.8025,0.73125,0.74675,0.65825,0.5016876220703125,0.5023040771484375,0.5273406982421875,0.49559871731643235,0.522529102584096,0.30093384564862563,0.20977766004526402,0.12868556750568985
0.6515000000000001,0.62375,0.70875,0.615,0.83625,0.58775,0.90375,0.85175,0.807,0.73725,0.753,0.6755,0.5007781982421875,0.501910400390625,0.5278961181640625,0.49495129512238445,0.5229983350204548,0.2985278734848258,0.20843542647521845,0.12212550251718508
0.65,0.61875,0.7070000000000001,0.61075,0.8334999999999999,0.5815,0.90125,0.85175,0.80975,0.74075,0.7575,0.6925,0.4996978759765625,0.5015594482421875,0.5288055419921875,0.4946958900468864,0.5195355175115219,0.295765607194977,0.2069716379399412,0.11346939567960337
0.6485,0.61375,0.70525,0.6065,0.83075,0.57525,0.89875,0.85175,0.8125,0.74425,0.762,0.7095,0.498779296875,0.501007080078125,0.5298431396484375,0.4951294847175027,0.5154193382544616,0.295765607194977,0.2069716379399412,0.11346939567960337
0.647,0.60875,0.7034999999999999,0.6022500000000001,0.828,0.569,0.89625,0.85175,0.81525,0.74775,0.7665000000000001,0.7265,0.498175048828125,0.5004150390625,0.5312469482421875,0.49657876003152146,0.5108398661151223,0.295765607194977,0.2069716379399412,0.11346939567960337
0.6455,0.60375,0.70175,0.598,0.82525,0.56275,0.89375,0.85175,0.818,0.75125,0.7709999999999999,0.7434999999999999,0.4976531982421875,0.5000701904296875,0.5328582763671875,0.4990674744839547,0.5060346872048455,0.2919740981932005,0.2031940843332865,0.10471030052560056
0.64375,0.59875,0.7,0.59375,0.8225,0.55625,0.89125,0.85125,0.8175,0.75125,0.77125,0.74875,0.4975006103515625,0.500250244140625,0.53385009765625,0.5008968876109563,0.5051259204276686,0.31243606475205693,0.17322717745609398,0.08274790936138993
0.63925,0.59175,0.69325,0.5865,0.81675,0.53525,0.8902500000000001,0.8490000000000001,0.8145,0.74675,0.76875,0.74675,0.497918701171875,0.5008453369140625,0.5352783203125,0.502637205847501,0.5090876688400915,0.3463068287856013,0.1718951005418327,0.1140408596652615
0.63475,0.58475,0.6865000000000001,0.5792499999999999,0.8109999999999999,0.51425,0.88925,0.84675,0.8115000000000001,0.74225,0.76625,0.7447499999999999,0.4982574462890625,0.501409912109375,0.5365997314453125,0.5041161793615703,0.5127880725300388,0.3463068287856013,0.1718951005418327,0.1140408596652615
0.63025,0.57775,0.67975,0.5720000000000001,0.80525,0.49325,0.88825,0.8445,0.8085,0.73775,0.76375,0.74275,0.498297119140625,0.502362060546875,0.5391448974609375,0.5058564975865028,0.5180862429290727,0.3729266497013124,0.17591846002805347,0.13324530110108573
0.62575,0.57075,0.6729999999999999,0.56475,0.7995,0.47225,0.88725,0.8422499999999999,0.8055,0.7332500000000001,0.76125,0.74075,0.500439453125,0.505523681640625,0.55125732421875,0.5053694460466408,0.5568008988083291,0.3729266497013124,0.17591846002805347,0.13324530110108573
0.6275,0.569,0.67025,0.561,0.80125,0.4675,0.8965000000000001,0.8490000000000001,0.8105,0.7440000000000001,0.7675,0.74625,0.5028900146484375,0.5087890625,0.5632720947265625,0.5044725584472968,0.594523632759827,0.3960694260145903,0.18249882296660483,0.15761662799821696
0.63375,0.5742499999999999,0.67425,0.5645,0.80875,0.48375,0.90675,0.858,0.8184999999999999,0.75925,0.77625,0.75375,0.5030487060546875,0.508221435546875,0.5707855224609375,0.5022927059163828,0.6367902024551629,0.3960694260145903,0.18249882296660483,0.15761662799821696
0.64,0.5795,0.67825,0.568,0.81625,0.5,0.917,0.867,0.8265,0.7745000000000001,0.785,0.76125,0.5047698974609375,0.51171875,0.5820343017578125,0.4989011642873013,0.6808861850917051,0.4219920791040933,0.19054078775974306,0.1846244267952944
0.64625,0.58475,0.6822499999999999,0.5715,0.82375,0.51625,0.9272499999999999,0.8759999999999999,0.8345,0.78975,0.79375,0.76875,0.5043212890625,0.5143798828125,0.5905914306640625,0.49544428649501926,0.7239011494701174,0.9241657912817756,0.30824692296360645,0.6982309703902557
0.6525,0.59,0.68625,0.575,0.83125,0.5325,0.9375,0.885,0.8425,0.805,0.8025,0.77625,0.4980316162109375,0.514532470703125,0.5902252197265625,0.49349608045169363,0.7306070170853296,0.8982188889511145,0.30421353527209116,0.6710253379773178
0.6525,0.59,0.68625,0.575,0.83125,0.5325,0.9375,0.885,0.8425,0.805,0.8025,0.77625,0.4909454345703125,0.5126495361328125,0.583953857421875,0.49095984866086995,0.7360714978784245,0.8982188889511145,0.30421353527209116,0.6710253379773178
0.6525,0.59,0.68625,0.575,0.83125,0.5325,0.9375,0.885,0.8425,0.805,0.8025,0.77625,0.4899993896484375,0.5166015625,0.575537109375,0.48472915280385187,0.7254751576377431,0.8871918486857296,0.3090778737154001,0.6542822058118548
0.6535,0.596,0.68825,0.5835,0.8325,0.54375,0.937,0.8852500000000001,0.8420000000000001,0.8027500000000001,0.80125,0.7759999999999999,0.50235595703125,0.5189361572265625,0.56087646484375,0.4892017112975975,0.6501663002682113,0.8871918486857296,0.3090778737154001,0.6542822058118548
0.6545000000000001,0.602,0.69025,0.5920000000000001,0.83375,0.555,0.9365000000000001,0.8855,0.8415,0.8005,0.8,0.77575,0.5145416259765625,0.521539306640625,0.54793701171875,0.49563435505895037,0.5731705811133407,0.85850032912409,0.3200300581399709,0.6402616206423467
0.6555,0.608,0.6922499999999999,0.6004999999999999,0.835,0.56625,0.9359999999999999,0.88575,0.841,0.79825,0.79875,0.7755,0.5278656005859375,0.5240631103515625,0.5350433349609375,0.5053100495071933,0.49604418981786463,0.85850032912409,0.3200300581399709,0.6402616206423467
0.6565000000000001,0.61525,0.695,0.6095,0.83675,0.5775,0.937,0.88875,0.8415,0.7985,0.799,0.77725,0.5365386962890625,0.5272308349609375,0.5297210693359375,0.5183000698486692,0.4163221712604408,0.3040149693162883,0.1795406474782076,0.09127513354644978
0.6575,0.6225,0.6977500000000001,0.6185,0.8384999999999999,0.58875,0.938,0.8917499999999999,0.8420000000000001,0.79875,0.79925,0.779,0.538665771484375,0.526922607421875,0.5301788330078125,0.5365169849183475,0.34596104265648553,0.27914357954689056,0.14763505398209656,0.05083521212214423
0.6575,0.62375,0.6984999999999999,0.619,0.8390000000000001,0.58875,0.9395,0.8945000000000001,0.843,0.80125,0.8007500000000001,0.7809999999999999,0.5238677978515625,0.523468017578125,0.533087158203125,0.5454086454081839,0.3382157344513322,0.27914357954689056,0.14763505398209656,0.05083521212214423
0.6575,0.625,0.6992499999999999,0.6195,0.8395,0.58875,0.941,0.89725,0.8440000000000001,0.80375,0.8022499999999999,0.7829999999999999,0.5067138671875,0.51810302734375,0.5331787109375,0.550599902161624,0.3403302526769997,0.2732649600449608,0.13460642507747916,0.04182233055058106
0.6577500000000001,0.6265,0.7005,0.62025,0.84025,0.589,0.9440000000000001,0.90075,0.846,0.8077500000000001,0.80425,0.7879999999999999,0.4905059814453125,0.51043701171875,0.5315521240234375,0.5528332112830906,0.35020195663671905,0.2732649600449608,0.13460642507747916,0.04182233055058106
0.6579999999999999,0.6267499999999999,0.701,0.6204999999999999,0.8405,0.5892499999999999,0.9455,0.9015000000000001,0.847,0.80925,0.80475,0.7909999999999999,0.4770355224609375,0.5024383544921875,0.5268768310546875,0.5484972651807631,0.3684901465411494,0.26771401387861476,0.11889834313541792,0.03226853882524725
0.65825,0.627,0.7015,0.62075,0.84075,0.5895,0.9470000000000001,0.90225,0.848,0.8107500000000001,0.80525,0.794,0.4649261474609375,0.4953521728515625,0.5214874267578125,0.5430149658647757,0.38829888904452764,0.26771401387861476,0.11889834313541792,0.03226853882524725
0.6585,0.62725,0.7020000000000001,0.621,0.841,0.58975,0.9484999999999999,0.903,0.8490000000000001,0.8122499999999999,0.8057500000000001,0.797,0.45321044921875,0.488824462890625,0.5148956298828125,0.5358814425524163,0.4106379242259139,0.21484387082364947,0.1421563897376515,0.0021984619512262164
0.659,0.62725,0.7027500000000001,0.621,0.84125,0.5902499999999999,0.94825,0.903,0.8504999999999999,0.8140000000000001,0.80675,0.80025,0.38900146484375,0.43880615234375,0.5399444580078125,0.48874435731911436,0.4622059899131821,0.21588192092168168,0.14252118006147188,0.002420260472308357
0.65925,0.627,0.703,0.62075,0.84125,0.5905,0.9465,0.90225,0.851,0.8142499999999999,0.8072499999999999,0.8005,0.40054931640625,0.438592529296875,0.540496826171875,0.47631266425800506,0.487021859231172,0.2148328605195606,0.14240014040938145,0.0019825689733450167
0.6595,0.6267499999999999,0.70325,0.6204999999999999,0.84125,0.59075,0.94475,0.9015000000000001,0.8515,0.8145,0.8077500000000001,0.8007500000000001,0.411956787109375,0.4429534912109375,0.5436614990234375,0.471566881631707,0.5105428846720036,0.21657248856560207,0.14154836254406022,0.0017561955988950428
0.65975,0.6265,0.7034999999999999,0.62025,0.84125,0.591,0.943,0.90075,0.852,0.81475,0.80825,0.8009999999999999,0.42073974609375,0.4461334228515625,0.54678955078125,0.4650748410289891,0.5343074358711539,0.2155256310814653,0.1414264237385415,0.001977427293286022
0.66,0.62625,0.70375,0.62,0.84125,0.59125,0.94125,0.9,0.8525,0.815,0.80875,0.80125,0.4291839599609375,0.4499267578125,0.5479827880859375,0.46135661839810943,0.550801850994936,0.2155256310814653,0.1414264237385415,0.001977427293286022
0.6547499999999999,0.618,0.6995,0.6125,0.83475,0.58275,0.932,0.88825,0.845,0.7985,0.799,0.7835,0.498248291015625,0.49969482421875,0.523065185546875,0.49879425052558546,0.5278688505584207,0.2158687119854412,0.14252207921490018,0.0029695627137855886
0.6495000000000001,0.60975,0.69525,0.605,0.82825,0.5742499999999999,0.9227500000000001,0.8765000000000001,0.8375,0.782,0.78925,0.76575,0.4933258056640625,0.501617431640625,0.524249267578125,0.5000475171990438,0.5253148000356846,0.2158687119854412,0.14252207921490018,0.0029695627137855886
0.64225,0.5954999999999999,0.6890000000000001,0.59225,0.81975,0.555,0.91375,0.86375,0.8315,0.7665000000000001,0.78175,0.7535,0.491253662109375,0.500689697265625,0.5242034912109375,0.49745782851575004,0.5194761215294607,0.21622060027552162,0.14240014040938145,0.0015370133611083314
0.635,0.58125,0.6827500000000001,0.5795,0.81125,0.5357500000000001,0.9047499999999999,0.851,0.8255,0.7509999999999999,0.77425,0.74125,0.4926361083984375,0.500885009765625,0.52518310546875,0.49764195780429454,0.512716796673412,0.20719040230292535,0.14349579588574016,0.0014319145345347722
0.62775,0.5670000000000001,0.6765000000000001,0.56675,0.8027500000000001,0.5165,0.89575,0.83825,0.8195,0.7354999999999999,0.7667499999999999,0.7290000000000001,0.4960235595703125,0.5006072998046875,0.52935791015625,0.4965371824446184,0.5109645990035658,0.2186441872115305,0.14069645773943149,0.0012139020272270086
0.62575,0.561,0.6745,0.5615,0.8007500000000001,0.50575,0.8959999999999999,0.8372499999999999,0.821,0.7365,0.769,0.7345,0.495916748046875,0.499627685546875,0.5300048828125,0.49552744145980554,0.5099192202065617,0.2186441872115305,0.14069645773943149,0.0012139020272270086
0.62375,0.555,0.6725,0.55625,0.79875,0.495,0.89625,0.83625,0.8225,0.7375,0.77125,0.74,0.495489501953125,0.499078369140625,0.5298980712890625,0.4962758377453674,0.5092480394013796,0.21031335998312656,0.14118344528093232,0.0013182515602553361
0.626,0.55625,0.67425,0.55875,0.80125,0.49774999999999997,0.89825,0.83825,0.82375,0.741,0.773,0.7445,0.49503173828125,0.4986846923828125,0.530108642578125,0.4977726302700422,0.5093490134464448,0.2110039276270469,0.1416712020141895,0.0013200942673443526
0.62825,0.5575,0.6759999999999999,0.56125,0.80375,0.5005,0.9002500000000001,0.84025,0.825,0.7445,0.7747499999999999,0.7490000000000001,0.4947784423828125,0.4985687255859375,0.530145263671875,0.4991922072446639,0.5092717979892893,0.21516493540528028,0.1421587033576494,0.0015391696614218341
0.6305,0.55875,0.6777500000000001,0.56375,0.80625,0.50325,0.90225,0.8422499999999999,0.82625,0.748,0.7765000000000001,0.7535,0.49449462890625,0.4985748291015625,0.53004150390625,0.5006711807355088,0.5090342119243969,0.21516053385514433,0.14191495268591944,0.0012110817695775947
0.63275,0.56,0.6795,0.56625,0.80875,0.506,0.90425,0.84425,0.8275,0.7515000000000001,0.77825,0.758,0.4943389892578125,0.4988800048828125,0.5299652099609375,0.5018769302795966,0.508772867178697,0.2137816014852879,0.14154939165916053,0.002532224354094945
0.63575,0.5645,0.6825,0.5710000000000001,0.813,0.51375,0.909,0.8482500000000001,0.83,0.75775,0.7815000000000001,0.7652500000000001,0.49427490234375,0.4992523193359375,0.529736328125,0.5028094557608052,0.5056367305089914,0.2137816014852879,0.14154939165916053,0.002532224354094945
0.6365,0.56775,0.68375,0.57325,0.81475,0.51875,0.91175,0.8502500000000001,0.83125,0.7605,0.7829999999999999,0.768,0.4941864013671875,0.499365234375,0.52899169921875,0.5030411022251691,0.5012592063668846,0.21446996621122394,0.14240142491427904,0.0026390729198546878
0.63725,0.5710000000000001,0.685,0.5755,0.8165,0.52375,0.9145,0.85225,0.8325,0.76325,0.7845,0.77075,0.494110107421875,0.4994171142578125,0.52818603515625,0.5031242573757507,0.496448087577386,0.21446996621122394,0.14240142491427904,0.0026390729198546878
0.63875,0.5760000000000001,0.68675,0.579,0.8192499999999999,0.53125,0.9179999999999999,0.8554999999999999,0.8334999999999999,0.768,0.78675,0.7759999999999999,0.4940643310546875,0.499346923828125,0.527520751953125,0.5031480160101093,0.4917973393956245,0.21239386601515955,0.1422801283612091,0.0024184323348160563
0.6402500000000001,0.581,0.6884999999999999,0.5825,0.8220000000000001,0.53875,0.9215000000000001,0.85875,0.8345,0.77275,0.789,0.78125,0.4941650390625,0.49918212890625,0.5274993896484375,0.5034331193437189,0.48679021211652423,0.21654826932527266,0.14203637768947913,0.0016536762847299696
0.6409999999999999,0.58275,0.6890000000000001,0.58375,0.823,0.54125,0.9222499999999999,0.86,0.8342499999999999,0.7747499999999999,0.78975,0.78375,0.494329833984375,0.4993560791015625,0.52783203125,0.5036113089388371,0.4847766699796713,0.21585770168135232,0.14142758130413155,0.0017591643276728603
0.6417499999999999,0.5845,0.6895,0.585,0.8240000000000001,0.54375,0.9229999999999999,0.86125,0.8340000000000001,0.7767499999999999,0.7905,0.78625,0.494573974609375,0.49957275390625,0.5284576416015625,0.5035934899979049,0.48310168795277597,0.21481525003318414,0.14179288542991098,0.001538955974003379
0.6425,0.58625,0.69,0.58625,0.825,0.54625,0.92375,0.8625,0.83375,0.77875,0.79125,0.78875,0.494879150390625,0.4997650146484375,0.5293212890625,0.5034984555533683,0.48193751621622327,0.21481525003318414,0.14179288542991098,0.001538955974003379
0.6417499999999999,0.58475,0.68975,0.5845,0.8240000000000001,0.54425,0.9215000000000001,0.86175,0.8322499999999999,0.77725,0.79,0.7885,0.4954559326171875,0.5003265380859375,0.53094482421875,0.5029044902517905,0.48207412823605067,0.21515833093716002,0.1422801283612091,0.003191712986559794
0.6409999999999999,0.58325,0.6895,0.58275,0.823,0.54225,0.91925,0.861,0.83075,0.77575,0.78875,0.78825,0.49583740234375,0.5003448486328125,0.5317230224609375,0.5023639818426829,0.4846875754143565,0.21515833093716002,0.1422801283612091,0.003191712986559794
0.6402500000000001,0.58175,0.6892499999999999,0.581,0.8220000000000001,0.54025,0.917,0.8602500000000001,0.8292499999999999,0.77425,0.7875,0.7879999999999999,0.496136474609375,0.5001251220703125,0.532257080078125,0.502292705986056,0.48795438431756544,0.21655707671137722,0.14240168181525856,0.0017637197549117425
0.6395000000000001,0.5802499999999999,0.6890000000000001,0.5792499999999999,0.821,0.53825,0.91475,0.8595,0.8277500000000001,0.77275,0.78625,0.7877500000000001,0.4963836669921875,0.50009765625,0.532562255859375,0.5026193868485077,0.4916013311382671,0.21655707671137722,0.14240168181525856,0.0017637197549117425
0.63875,0.57875,0.68875,0.5775,0.82,0.53625,0.9125,0.85875,0.82625,0.77125,0.785,0.7875,0.49658203125,0.5001220703125,0.5325653076171875,0.5029935849332275,0.4954858638729025,0.21413128685738403,0.14142745285364178,0.0019837144211627736
0.63875,0.57875,0.68875,0.5775,0.82,0.53625,0.9125,0.85875,0.82625,0.77125,0.785,0.7875,0.4965576171875,0.4998291015625,0.531787109375,0.503801377711788,0.4982002852123955,0.21585550304920062,0.14203663610164088,0.002861583269804799
0.63875,0.57875,0.68875,0.5775,0.82,0.53625,0.9125,0.85875,0.82625,0.77125,0.785,0.7875,0.496588134765625,0.500164794921875,0.5314849853515625,0.504258730970314,0.49923972446693216,0.21516273248729598,0.14191495268591944,0.0017557363097034247
0.638,0.57725,0.6877500000000001,0.57525,0.81875,0.5347500000000001,0.90925,0.85575,0.8227500000000001,0.767,0.7829999999999999,0.785,0.4965087890625,0.5004058837890625,0.53118896484375,0.5041161793035092,0.4999821810358433,0.21516273248729598,0.14191495268591944,0.0017557363097034247
0.63725,0.57475,0.68625,0.5725,0.8172499999999999,0.53225,0.9047499999999999,0.85175,0.8184999999999999,0.76225,0.7805,0.782,0.4964874267578125,0.500494384765625,0.531036376953125,0.503575670917626,0.5001841292246774,0.21584669566309606,0.14276724435319973,0.0020896610595069593
0.63625,0.57275,0.685,0.57,0.81575,0.53025,0.89925,0.8475,0.81325,0.758,0.77825,0.77925,0.4963836669921875,0.5005401611328125,0.5309783935546875,0.5028332143487149,0.5004692325582869,0.21584669566309606,0.14276724435319973,0.0020896610595069593
0.63525,0.57075,0.68375,0.5675,0.8142499999999999,0.52825,0.89375,0.84325,0.8079999999999999,0.75375,0.7759999999999999,0.7765000000000001,0.4962127685546875,0.500579833984375,0.5309356689453125,0.5020373008873336,0.5006177238720692,0.2162051884212968,0.14203714990359992,0.0018685292709220065
0.63425,0.56875,0.6825,0.565,0.8127500000000001,0.52625,0.88825,0.8390000000000001,0.8027500000000001,0.7495,0.77375,0.77375,0.496142578125,0.5005889892578125,0.530963134765625,0.501306723594959,0.5007424565863294,0.21377719993515196,0.14167133046467928,0.0018734225740465612
0.634,0.56825,0.6822499999999999,0.56475,0.8125,0.52575,0.8859999999999999,0.8377500000000001,0.8009999999999999,0.7495,0.7735,0.7735,0.4961517333984375,0.5006256103515625,0.531048583984375,0.50078997382021,0.5008374910308659,0.21446776329323963,0.14179339923186998,0.002637393253490791
0.63375,0.56875,0.6825,0.565,0.8125,0.52625,0.885,0.8375,0.8,0.75,0.77375,0.77375,0.49613037109375,0.5005462646484375,0.5313232421875,0.5006474221534052,0.501437395973615,0.21412468238926377,0.14191533803738873,0.0021976328717942225
0.634,0.57075,0.6829999999999999,0.5660000000000001,0.81325,0.528,0.887,0.8390000000000001,0.8045,0.754,0.7755,0.777,0.4962432861328125,0.5003936767578125,0.5329986572265625,0.5026372057952461,0.5087075310387209,0.21515833093716002,0.1416712020141895,0.0015405482227869973
0.63425,0.57275,0.6835,0.5670000000000001,0.8140000000000001,0.52975,0.889,0.8405,0.809,0.758,0.77725,0.7802500000000001,0.4963348388671875,0.500738525390625,0.5316162109375,0.5043418861267018,0.517415062030993,0.2161985839531765,0.1421587033576494,0.0018734225740465612
0.6345000000000001,0.57475,0.684,0.568,0.81475,0.5315,0.8909999999999999,0.8420000000000001,0.8134999999999999,0.762,0.779,0.7835,0.4953460693359375,0.50118408203125,0.526605224609375,0.5050308858437855,0.5229686375287492,0.2161985839531765,0.1421587033576494,0.0018734225740465612
0.6355,0.5792499999999999,0.6855,0.5725,0.8170000000000001,0.537,0.89725,0.84625,0.82075,0.7702500000000001,0.7822499999999999,0.789,0.4934326171875,0.5022369384765625,0.520892333984375,0.5037479208657668,0.524809929856808,0.21377499701716765,0.14130654165204115,0.0010995605260149506
0.6365,0.58375,0.687,0.5770000000000001,0.8192499999999999,0.5425,0.9035,0.8504999999999999,0.828,0.7785,0.7855,0.7945,0.49195556640625,0.5037994384765625,0.5153167724609375,0.5010572581838567,0.5245782833924441,0.2165416648571524,0.14203689300262043,0.001208597306442895
0.63725,0.58625,0.688,0.5805,0.82075,0.54625,0.9077500000000001,0.8532500000000001,0.83075,0.7827500000000001,0.787,0.79675,0.49112548828125,0.5040008544921875,0.5096099853515625,0.4952363983863208,0.5141660719758185,0.21515612801917572,0.1419150811364092,0.0009964653658845635
0.638,0.58875,0.6890000000000001,0.584,0.8222499999999999,0.55,0.912,0.856,0.8334999999999999,0.787,0.7885,0.799,0.4901519775390625,0.5038665771484375,0.5068389892578125,0.48895224566005707,0.499204086608292,0.21481745295116844,0.14203689300262043,0.0017616800113719451
0.63875,0.59125,0.69,0.5875,0.82375,0.55375,0.91625,0.85875,0.83625,0.79125,0.79,0.80125,0.491949462890625,0.50277099609375,0.5150054931640625,0.48617842787401416,0.49145877914632036,0.21481745295116844,0.14203689300262043,0.0017616800113719451
0.63875,0.59125,0.69,0.5875,0.82375,0.55375,0.91625,0.85875,0.83625,0.79125,0.79,0.80125,0.4942657470703125,0.5014892578125,0.522357177734375,0.48641601393890666,0.49124495166933757,0.21481745295116844,0.14203689300262043,0.0017616800113719451
0.637,0.58375,0.68825,0.5825,0.82075,0.54725,0.9129999999999999,0.85575,0.8342499999999999,0.7865000000000001,0.789,0.7995,0.49605712890625,0.500103759765625,0.529022216796875,0.48787716848881924,0.4939059161628093,0.2175863194233049,0.14203702145311017,0.002640458419123045
0.63525,0.57625,0.6865000000000001,0.5775,0.8177500000000001,0.5407500000000001,0.90975,0.85275,0.8322499999999999,0.78175,0.7879999999999999,0.7977500000000001,0.4970458984375,0.5007476806640625,0.5334442138671875,0.4896412455455179,0.5013007837563801,0.21585550304920062,0.1431324200284894,0.0021970521692966684
0.6335000000000001,0.56875,0.68475,0.5725,0.81475,0.53425,0.9065000000000001,0.8497499999999999,0.83025,0.777,0.787,0.7959999999999999,0.4980560302734375,0.5014068603515625,0.5372161865234375,0.4910311243317014,0.5119565209313243,0.21584889858108036,0.14203676455213066,0.0007735200094040254
0.6317499999999999,0.56125,0.6829999999999999,0.5675,0.81175,0.5277499999999999,0.90325,0.84675,0.82825,0.77225,0.7859999999999999,0.79425,0.49658203125,0.5017059326171875,0.532568359375,0.48984319382144353,0.5173972429507141,0.2165438677751367,0.14215857490715963,0.001867160422621319
0.63,0.55375,0.68125,0.5625,0.80875,0.52125,0.9,0.84375,0.82625,0.7675,0.785,0.7925,0.4952484130859375,0.5007415771484375,0.528863525390625,0.48978973695219785,0.5160192435513832,0.2165438677751367,0.14215857490715963,0.001867160422621319
0.63,0.55375,0.68125,0.5625,0.80875,0.52125,0.9,0.84375,0.82625,0.7675,0.785,0.7925,0.493927001953125,0.4989227294921875,0.5269012451171875,0.491565693117056,0.5117248745598582,0.21551021922724045,0.14191520958689896,0.0004429233717638949
0.62875,0.5505,0.67975,0.56025,0.8077500000000001,0.51825,0.89875,0.8440000000000001,0.82475,0.7647499999999999,0.784,0.7905,0.4932708740234375,0.4977569580078125,0.5277984619140625,0.4963530531328495,0.5094321686899241,0.21551021922724045,0.14191520958689896,0.0004429233717638949
0.6275,0.54725,0.67825,0.5579999999999999,0.80675,0.51525,0.8975,0.84425,0.82325,0.762,0.7829999999999999,0.7885,0.4927764892578125,0.496368408203125,0.529473876953125,0.5023818007139419,0.5069969109209411,0.21551242214522476,0.1421587033576494,0.0013218329058854205
0.62625,0.544,0.67675,0.5557500000000001,0.8057500000000001,0.51225,0.89625,0.8445,0.82175,0.75925,0.782,0.7865000000000001,0.4931243896484375,0.4958831787109375,0.533154296875,0.50976478892066,0.5077512469696026,0.21551242214522476,0.1421587033576494,0.0013218329058854205
0.625,0.5407500000000001,0.67525,0.5535,0.80475,0.50925,0.895,0.8447499999999999,0.82025,0.7565000000000001,0.7809999999999999,0.7845,0.4935394287109375,0.4963134765625,0.53753662109375,0.5167735791355561,0.5132870033406312,0.21585550304920062,0.14179301388040072,0.001542943186970459
0.62375,0.5375,0.67375,0.55125,0.80375,0.50625,0.89375,0.845,0.81875,0.75375,0.78,0.7825,0.494256591796875,0.49798583984375,0.5407928466796875,0.52337253329097,0.5226597756536788,0.2137683925490474,0.14240309628182812,0.002529724627573216
0.62375,0.5375,0.67375,0.55125,0.80375,0.50625,0.89375,0.845,0.81875,0.75375,0.78,0.7825,0.4944366455078125,0.49774169921875,0.54163818359375,0.5283143247784605,0.5298408155844714,0.21445896019296776,0.14228090057532988,0.001651955684737217
0.62375,0.53725,0.674,0.55125,0.80425,0.508,0.8935,0.8440000000000001,0.81875,0.75325,0.7797499999999999,0.7815000000000001,0.4944793701171875,0.49788818359375,0.54244384765625,0.5343430721737575,0.5382870018542679,0.2130690218048551,0.14130744080546942,0.002307688830201747
0.62375,0.537,0.67425,0.55125,0.80475,0.50975,0.89325,0.843,0.81875,0.75275,0.7795000000000001,0.7805,0.49405517578125,0.49869384765625,0.5425567626953125,0.5400926560217689,0.5457115677291746,0.2165394619391681,0.14167248803026933,0.002641146659120147
0.62375,0.53675,0.6745,0.55125,0.80525,0.5115,0.893,0.8420000000000001,0.81875,0.75225,0.77925,0.7795000000000001,0.4916259765625,0.5001983642578125,0.5529022216796875,0.5449275333991772,0.5654490331682558,0.2165394619391681,0.14167248803026933,0.002641146659120147
0.62375,0.5365,0.67475,0.55125,0.8057500000000001,0.51325,0.89275,0.841,0.81875,0.7517499999999999,0.779,0.7785,0.4854644775390625,0.49388427734375,0.5631744384765625,0.5563910633062332,0.580090277691899,0.21549480737301563,0.1417946852479498,0.000991104448084556
0.6265,0.5455,0.6777500000000001,0.557,0.8095,0.5217499999999999,0.89575,0.8427500000000001,0.82175,0.7567499999999999,0.7797499999999999,0.78125,0.47821044921875,0.495306396484375,0.5633270263671875,0.57415062514061,0.5764789689853062,0.21549480737301563,0.1417946852479498,0.000991104448084556
0.62925,0.55475,0.6805,0.56275,0.8127500000000001,0.5285,0.899,0.8454999999999999,0.82475,0.76225,0.78075,0.785,0.450634765625,0.506915283203125,0.55518798828125,0.600083149390924,0.5578047006803263,0.21445896019296776,0.14167287338173862,0.0024236683703585237
0.632,0.564,0.68325,0.5685,0.816,0.53525,0.90225,0.8482500000000001,0.8277500000000001,0.76775,0.78175,0.78875,0.4223480224609375,0.4963714599609375,0.5517181396484375,0.6070028444831189,0.5220064134642871,0.21687593837502372,0.1421597324727497,0.0020915891028052917
0.63475,0.57325,0.6859999999999999,0.5742499999999999,0.8192499999999999,0.542,0.9055,0.851,0.83075,0.77325,0.7827500000000001,0.7925,0.3962677001953125,0.4850677490234375,0.5378570556640625,0.6130434708936777,0.47209551202420325,0.21619417811720792,0.1415508061257301,0.001756310074297785
0.6375,0.5825,0.68875,0.58,0.8225,0.54875,0.90875,0.85375,0.83375,0.77875,0.78375,0.79625,0.38013916015625,0.48663330078125,0.5120361328125,0.586920877940086,0.4092539858763384,0.21619417811720792,0.1415508061257301,0.001756310074297785
0.6395000000000001,0.58875,0.69075,0.585,0.8245,0.55375,0.9145,0.8597499999999999,0.8345,0.7835,0.78675,0.80025,0.3686279296875,0.4840423583984375,0.5016143798828125,0.5473746699976265,0.40747209011095165,0.214797635260975,0.14228154282777866,0.0017588188200936712
0.6415000000000001,0.595,0.6927500000000001,0.59,0.8265,0.55875,0.92025,0.86575,0.83525,0.78825,0.78975,0.80425,0.3847503662109375,0.47371826171875,0.5048858642578125,0.49590163940517884,0.4346638204494572,0.214797635260975,0.14228154282777866,0.0017588188200936712
0.6435,0.60125,0.69475,0.595,0.8284999999999999,0.56375,0.9259999999999999,0.87175,0.836,0.7929999999999999,0.7927500000000001,0.80825,0.404449462890625,0.48560791015625,0.5053680419921875,0.4614813514026751,0.4823354740036253,0.21342090580910292,0.14130744080546942,0.0019779934261868657
0.6455,0.6075,0.69675,0.6,0.8305,0.56875,0.93175,0.87775,0.83675,0.7977500000000001,0.7957500000000001,0.8122499999999999,0.4276123046875,0.497821044921875,0.508251953125,0.42574840100012035,0.5312663329028032,0.21342090580910292,0.14130744080546942,0.0019779934261868657
0.6475,0.61375,0.69875,0.605,0.8325,0.57375,0.9375,0.88375,0.8375,0.8025,0.79875,0.81625,0.44622802734375,0.5043609619140625,0.523626708984375,0.41366120792819033,0.5964659015482912,0.21516053385514433,0.14240206867791008,0.0021984376685650247
0.6485,0.6154999999999999,0.7,0.607,0.8334999999999999,0.575,0.9384999999999999,0.88425,0.8390000000000001,0.8035,0.799,0.8170000000000001,0.462823486328125,0.5079803466796875,0.5345489501953125,0.41148729462621414,0.6177357978584003,0.21515612801917572,0.14179339923186998,0.002090334729907346
0.6495000000000001,0.61725,0.70125,0.609,0.8345,0.57625,0.9395,0.8847499999999999,0.8405,0.8045,0.79925,0.8177500000000001,0.47393798828125,0.5084808349609375,0.540057373046875,0.4154965603770273,0.6245188820455403,0.21515392938702405,0.14203676455213066,0.0022009464143609163
0.6505,0.619,0.7025,0.611,0.8355,0.5775,0.9405,0.8852500000000001,0.8420000000000001,0.8055,0.7995,0.8184999999999999,0.4865997314453125,0.5082611083984375,0.54306640625,0.42285579092481285,0.629365639181392,0.2161985839531765,0.14179327078138024,0.0018701360893023402
0.6517499999999999,0.621,0.70375,0.6135,0.8365,0.5795,0.94125,0.8865000000000001,0.8427500000000001,0.80625,0.79925,0.8184999999999999,0.5132965087890625,0.50816650390625,0.5405853271484375,0.44098955065811407,0.6366060773470151,0.2161985839531765,0.14252413593391855,0.0024211526866594387
0.653,0.623,0.705,0.616,0.8375,0.5815,0.9420000000000001,0.88775,0.8434999999999999,0.807,0.799,0.8184999999999999,0.53233642578125,0.5041900634765625,0.5378570556640625,0.45365882959832043,0.6141482492260804,0.2161985839531765,0.14252413593391855,0.0024211526866594387
0.6535,0.62225,0.70525,0.61575,0.8375,0.58175,0.9422499999999999,0.89,0.84375,0.8075,0.799,0.8184999999999999,0.5436065673828125,0.5074859619140625,0.53092041015625,0.48256711926031903,0.543395104200308,0.2155036147591202,0.14167171732733078,0.0018724165780830554
0.654,0.6214999999999999,0.7055,0.6154999999999999,0.8375,0.5820000000000001,0.9425,0.89225,0.8440000000000001,0.8079999999999999,0.799,0.8184999999999999,0.5472625732421875,0.5119842529296875,0.5619415283203125,0.5078878586178391,0.45511404705594244,0.2155036147591202,0.14167171732733078,0.0018724165780830554
0.6545000000000001,0.62075,0.70575,0.61525,0.8375,0.58225,0.9427500000000001,0.8945000000000001,0.84425,0.8085,0.799,0.8184999999999999,0.545233154296875,0.506048583984375,0.5723907470703125,0.5317474441686283,0.3672368853486556,0.21515612801917572,0.14191520958689896,0.0015399820898861537
0.6547499999999999,0.61975,0.706,0.6145,0.8375,0.58175,0.94325,0.8959999999999999,0.8452500000000001,0.80925,0.7995,0.8192499999999999,0.5281219482421875,0.507330322265625,0.5880706787109375,0.5392492258722812,0.27861132784351994,0.21411367637100756,0.14094123752626173,0.002090227886198121
0.655,0.61875,0.70625,0.61375,0.8375,0.58125,0.94375,0.8975,0.84625,0.81,0.8,0.82,0.5183349609375,0.5133148193359375,0.601007080078125,0.5527500566898952,0.22219650780733113,0.2165416648571524,0.14179391303382902,0.001874572878396558
0.655,0.61875,0.70625,0.61375,0.8375,0.58125,0.94375,0.8975,0.84625,0.81,0.8,0.82,0.511846923828125,0.5106903076171875,0.611468505859375,0.5410489409037421,0.22100857952661823,0.21584889858108036,0.14228064367435037,0.0017586946316264535
0.655,0.61875,0.70625,0.61375,0.8375,0.58125,0.94375,0.8975,0.84625,0.81,0.8,0.82,0.512481689453125,0.5048248291015625,0.6244049072265625,0.5254751712008079,0.24283680218811698,0.2137683925490474,0.14203702145311017,0.0017612304352448073
0.6502500000000001,0.609,0.7025,0.602,0.8320000000000001,0.563,0.9415,0.894,0.84575,0.81175,0.8007500000000001,0.8215,0.5096649169921875,0.5101226806640625,0.6096038818359375,0.5117605125230081,0.30766811021276635,0.2137683925490474,0.14203702145311017,0.0017612304352448073
0.6455,0.59925,0.69875,0.5902499999999999,0.8265,0.5447500000000001,0.9392499999999999,0.8905,0.8452500000000001,0.8134999999999999,0.8015000000000001,0.823,0.5040863037109375,0.505621337890625,0.590655517578125,0.5043775238982503,0.36563911887181344,0.21445896019296776,0.1416722311292898,0.0013201116121023448
0.64075,0.5895,0.695,0.5785,0.821,0.5265,0.937,0.887,0.8447499999999999,0.81525,0.8022499999999999,0.8245,0.496478271484375,0.500927734375,0.575787353515625,0.49675694953374194,0.41662509627546496,0.21445896019296776,0.1416722311292898,0.0013201116121023448
0.6345000000000001,0.579,0.6895,0.5655,0.8140000000000001,0.50425,0.9307500000000001,0.8775,0.83825,0.80525,0.7975,0.818,0.494525146484375,0.498675537109375,0.5706298828125,0.4954086483460738,0.45980043144740984,0.21446556466108802,0.14264594780012976,0.001760763514359677
0.62825,0.5685,0.684,0.5525,0.807,0.48200000000000004,0.9245,0.868,0.83175,0.79525,0.7927500000000001,0.8115000000000001,0.491937255859375,0.4987152099609375,0.525347900390625,0.4979626991010542,0.4975053457612427,0.3129306841270232,0.3237444896647761,0.2809663165965373
0.6267499999999999,0.56775,0.6822499999999999,0.55125,0.8055,0.478,0.9205,0.862,0.82575,0.7835,0.7872499999999999,0.8035,0.4943359375,0.4982177734375,0.5282867431640625,0.4976478974977208,0.49085293464368546,0.36546875658210143,0.312302617216055,0.2962571034901321
0.62525,0.5670000000000001,0.6805,0.55,0.804,0.474,0.9165000000000001,0.856,0.81975,0.7717499999999999,0.78175,0.7955,0.4961212158203125,0.499609375,0.5321044921875,0.4979330008313304,0.48882751302708227,0.4515697288536685,0.2975746774916861,0.3161596124629362
0.62375,0.56625,0.67875,0.54875,0.8025,0.47,0.9125,0.85,0.81375,0.76,0.77625,0.7875,0.498370361328125,0.5003387451171875,0.5341094970703125,0.49834877653779,0.4910964603091065,0.5238329646610084,0.2981904177593918,0.3449337486858015
0.62425,0.5675,0.6795,0.55125,0.8027500000000001,0.47725,0.90875,0.8490000000000001,0.8115000000000001,0.75375,0.77275,0.773,0.4982025146484375,0.499945068359375,0.5330413818359375,0.4992100262088206,0.49498099331082274,0.5238329646610084,0.2981904177593918,0.3449337486858015
0.62475,0.56875,0.68025,0.55375,0.8029999999999999,0.48450000000000004,0.905,0.848,0.80925,0.7475,0.76925,0.7585,0.49735107421875,0.4995819091796875,0.531640625,0.5003207413083719,0.49828937997511796,0.580461590091316,0.3190276728309991,0.41536932895307055
0.62525,0.57,0.6809999999999999,0.55625,0.80325,0.49174999999999996,0.90125,0.847,0.807,0.74125,0.76575,0.7440000000000001,0.4965789794921875,0.4993988037109375,0.530694580078125,0.5017521976698461,0.4999406034141036,0.580461590091316,0.3190276728309991,0.41536932895307055
0.62575,0.57125,0.68175,0.55875,0.8035,0.499,0.8975,0.846,0.80475,0.735,0.76225,0.7295,0.49676513671875,0.4994598388671875,0.5308746337890625,0.503148016103007,0.5009206461408049,0.5834634601415356,0.4103752068878368,0.5174243301908201
0.62625,0.5725,0.6825,0.56125,0.80375,0.50625,0.89375,0.845,0.8025,0.72875,0.75875,0.715,0.4969635009765625,0.4995849609375,0.5310394287109375,0.5044191018102954,0.5018115940699471,0.6511037182688362,0.17474727566371687,0.48370895687021387
0.62625,0.5725,0.6825,0.56125,0.80375,0.50625,0.89375,0.845,0.8025,0.72875,0.75875,0.715,0.4968780517578125,0.4996795654296875,0.53094482421875,0.5046210499933232,0.5017106199784331,0.6338615777798332,0.21907707352929615,0.5005015888936136
0.62625,0.5725,0.6825,0.56125,0.80375,0.50625,0.89375,0.845,0.8025,0.72875,0.75875,0.715,0.496875,0.4997650146484375,0.5308502197265625,0.504514136208383,0.5014076977038913,0.45157193177165283,0.2155201298608459,0.3013433136254885
0.62775,0.575,0.684,0.5642499999999999,0.8059999999999999,0.511,0.893,0.8452500000000001,0.8022499999999999,0.73075,0.7585,0.718,0.4968505859375,0.4998046875,0.53094482421875,0.5038251364622687,0.49991684487264276,0.43983892057978796,0.21174077643615236,0.27931435050494524
0.63225,0.58325,0.6877500000000001,0.57275,0.8115000000000001,0.5235,0.89625,0.8490000000000001,0.804,0.7352500000000001,0.7585,0.71925,0.497430419921875,0.4996978759765625,0.5308502197265625,0.5034212400497641,0.49650154456275386,0.43983892057978796,0.21174077643615236,0.27931435050494524
0.6367499999999999,0.5915,0.6915,0.58125,0.8170000000000001,0.536,0.8995000000000001,0.85275,0.8057500000000001,0.7397499999999999,0.7585,0.7204999999999999,0.4979888916015625,0.4998779296875,0.5306396484375,0.5034746969190097,0.49366239056706157,0.4298235082541216,0.21052061012211531,0.26659234238980756
0.64125,0.59975,0.69525,0.58975,0.8225,0.5485,0.90275,0.8565,0.8075,0.74425,0.7585,0.72175,0.4984375,0.5005279541015625,0.530072021484375,0.5035043952003457,0.4914469001310586,0.382508717201471,0.20490997886685694,0.21348982558438828
0.64575,0.608,0.6990000000000001,0.5982500000000001,0.828,0.561,0.9059999999999999,0.8602500000000001,0.80925,0.74875,0.7585,0.723,0.4989471435546875,0.50133056640625,0.5294921875,0.5032252315137136,0.48999762482865206,0.27926687438068915,0.21330207853852523,0.11579120453039085
0.64875,0.61375,0.70125,0.60375,0.83125,0.56875,0.91,0.86375,0.81125,0.75125,0.75875,0.72125,0.4994293212890625,0.5021636962890625,0.5287841796875,0.5027678782319631,0.490419340182089,0.30697098095710695,0.20259197190695302,0.12201739610957577
0.64875,0.61375,0.70125,0.60375,0.83125,0.56875,0.91,0.86375,0.81125,0.75125,0.75875,0.72125,0.4996124267578125,0.5025177001953125,0.5283477783203125,0.501585887322234,0.4932584941777813,0.3055876470371145,0.2001571671834852,0.1237761171052344
0.649,0.614,0.70125,0.6045,0.8315,0.57,0.9075,0.8625,0.8095,0.7509999999999999,0.758,0.7184999999999999,0.499359130859375,0.502520751953125,0.5290313720703125,0.5009859823736788,0.4949037779233406,0.30524456613313866,0.19881788948588627,0.12432133084035786
0.64925,0.6145,0.70125,0.60575,0.8320000000000001,0.5715,0.9052500000000001,0.86275,0.8079999999999999,0.7497499999999999,0.7559999999999999,0.71325,0.4996124267578125,0.5014556884765625,0.5294708251953125,0.49970301737243555,0.4958956998510991,0.30524456613313866,0.19881788948588627,0.12432133084035786
0.6495000000000001,0.615,0.70125,0.607,0.8325,0.573,0.903,0.863,0.8065000000000001,0.7484999999999999,0.754,0.708,0.4999755859375,0.5005035400390625,0.529876708984375,0.5008077928250094,0.49442860560776025,0.3024734924571853,0.1969917542084585,0.12629544667244813
0.65,0.61575,0.7015,0.6085,0.833,0.575,0.9,0.8625,0.8055,0.74575,0.7515000000000001,0.69825,0.500518798828125,0.499658203125,0.5299957275390625,0.5025837490827653,0.49255167521204163,0.3024734924571853,0.1969917542084585,0.12629544667244813
0.6505,0.6164999999999999,0.70175,0.61,0.8334999999999999,0.5770000000000001,0.897,0.862,0.8045,0.743,0.7490000000000001,0.6884999999999999,0.5007415771484375,0.4997314453125,0.529833984375,0.5047992396348904,0.4907282017320175,0.2861791424305152,0.1917596680577003,0.1411851852966028
0.65075,0.617,0.7020000000000001,0.61075,0.83375,0.57775,0.8965000000000001,0.86275,0.80525,0.7404999999999999,0.74725,0.6815000000000001,0.5013671875,0.499920654296875,0.5287994384765625,0.5058327392308374,0.490270848496716,0.3016860564236127,0.17849474616567013,0.16834236825014798
0.6509999999999999,0.61725,0.7022499999999999,0.611,0.83375,0.57825,0.89575,0.862,0.8057500000000001,0.7390000000000001,0.74675,0.677,0.5015350341796875,0.5007537841796875,0.5283447265625,0.507602755748718,0.4899204089999058,0.30721499055344625,0.17861745718530964,0.1747029053868317
0.65125,0.6175,0.7025,0.61125,0.83375,0.57875,0.895,0.86125,0.80625,0.7375,0.74625,0.6725,0.5014923095703125,0.5010650634765625,0.52845458984375,0.5070741266567896,0.4918389168780176,0.312040148103119,0.18251810716307312,0.1880532141781946
0.65125,0.618,0.7027500000000001,0.6114999999999999,0.83375,0.5792499999999999,0.8935,0.8602500000000001,0.8055,0.73675,0.7454999999999999,0.6695,0.501348876953125,0.5014923095703125,0.528656005859375,0.5062009976221309,0.494773105457593,0.36807507427915864,0.19713991958162147,0.2170729091592194
0.65125,0.6185,0.703,0.61175,0.83375,0.57975,0.892,0.85925,0.80475,0.736,0.7447499999999999,0.6665000000000001,0.5011016845703125,0.5016204833984375,0.5291778564453125,0.5046863860868506,0.49781420777565977,0.3722162686530312,0.19616723202588177,0.223875709873073
0.65125,0.619,0.70325,0.612,0.83375,0.5802499999999999,0.8905,0.8582500000000001,0.804,0.7352500000000001,0.7440000000000001,0.6635,0.5005645751953125,0.5014312744140625,0.52977294921875,0.5032252314962953,0.5002732240396548,0.3722162686530312,0.19616723202588177,0.223875709873073
0.65125,0.61975,0.7034999999999999,0.6125,0.8340000000000001,0.58125,0.8917499999999999,0.85675,0.802,0.7334999999999999,0.742,0.6572499999999999,0.5002349853515625,0.50107421875,0.530718994140625,0.5017937751696576,0.5024708955579499,0.3770524365067929,0.19653395061823076,0.22726337907888827
0.65125,0.6204999999999999,0.70375,0.613,0.8342499999999999,0.58225,0.893,0.8552500000000001,0.8,0.73175,0.74,0.6509999999999999,0.500091552734375,0.5013702392578125,0.5309326171875,0.5004751722168765,0.5036053692454108,0.3791241351527213,0.19690028385911046,0.23208455229286074
0.65125,0.62075,0.70375,0.6132500000000001,0.8345,0.58275,0.89575,0.8547499999999999,0.79875,0.73075,0.73875,0.64775,0.50006103515625,0.501458740234375,0.5312255859375,0.4991506296403425,0.5041399380307655,0.3791241351527213,0.19690028385911046,0.23208455229286074
0.6509999999999999,0.621,0.70375,0.6135,0.83475,0.5835,0.8985,0.8545,0.7975,0.7295,0.73725,0.64425,0.5001708984375,0.50152587890625,0.5312408447265625,0.4979805180477926,0.5046626274292675,0.3797970880244325,0.19799722535154898,0.23614003145223483
0.65075,0.62125,0.70375,0.61375,0.835,0.5842499999999999,0.90125,0.85425,0.79625,0.7282500000000001,0.73575,0.64075,0.5006134033203125,0.50179443359375,0.53106689453125,0.4970242339496437,0.5051081013706142,0.4329971030471332,0.20921295693509492,0.2884184190195922
0.6505,0.62125,0.70375,0.61375,0.835,0.5845,0.90125,0.8545,0.79625,0.728,0.7354999999999999,0.6405,0.500775146484375,0.5020660400390625,0.5302734375,0.4954264673450671,0.5070978851053528,0.43228011753073176,0.21152762267108285,0.29620093977617507
0.6502500000000001,0.62125,0.70375,0.61375,0.835,0.58475,0.90125,0.8547499999999999,0.79625,0.72775,0.7352500000000001,0.6402500000000001,0.5007659912109375,0.5020904541015625,0.5296661376953125,0.4940900454513538,0.5102340219144049,0.43228011753073176,0.21152762267108285,0.29620093977617507
0.65,0.62125,0.70375,0.61375,0.835,0.585,0.90125,0.855,0.79625,0.7275,0.735,0.64,0.499609375,0.502435302734375,0.528887939453125,0.4933654077769261,0.5141779514091199,0.43331816762876396,0.21566868058547808,0.3009075869407104
0.6505,0.62125,0.7040000000000001,0.6135,0.83525,0.58475,0.90275,0.856,0.8015000000000001,0.7332500000000001,0.741,0.65975,0.4978546142578125,0.50162353515625,0.52916259765625,0.4935317180780895,0.513073176002995,0.4322823204487161,0.21895731989328557,0.3012330758940172
0.6509999999999999,0.62125,0.7042499999999999,0.6132500000000001,0.8355,0.5845,0.90425,0.857,0.80675,0.7390000000000001,0.747,0.6795,0.496099853515625,0.500811767578125,0.529437255859375,0.49369802837925286,0.51196840059687,0.43504678537071656,0.2235840778219196,0.30265481183077225
0.6515000000000001,0.62125,0.7045,0.613,0.83575,0.5842499999999999,0.90575,0.858,0.812,0.7447499999999999,0.753,0.6992499999999999,0.4954315185546875,0.500628662109375,0.5298248291015625,0.492735804547035,0.5082798761544286,0.43504678537071656,0.2235840778219196,0.30265481183077225
0.652,0.62125,0.70475,0.61275,0.836,0.584,0.9072499999999999,0.8590000000000001,0.8172499999999999,0.7505,0.759,0.7190000000000001,0.494891357421875,0.499639892578125,0.5303863525390625,0.4919992875786524,0.5042468517692569,0.4354096839648859,0.22553266721800738,0.3014503550649571
0.6525,0.62125,0.705,0.6125,0.83625,0.58375,0.90875,0.86,0.8225,0.75625,0.765,0.73875,0.495550537109375,0.4987457275390625,0.531793212890625,0.4914290809114332,0.49941791396334656,0.43541408551502186,0.22942920375773415,0.3016680692424274
0.65075,0.6175,0.7040000000000001,0.60875,0.8340000000000001,0.579,0.90625,0.8575,0.8205,0.75325,0.763,0.7352500000000001,0.4967864990234375,0.49903564453125,0.5323028564453125,0.4904549777852605,0.4989961986273279,0.36138700242131117,0.19443899415583665,0.21304596212674123
0.649,0.61375,0.703,0.605,0.83175,0.5742499999999999,0.90375,0.855,0.8184999999999999,0.7502500000000001,0.7609999999999999,0.73175,0.4981658935546875,0.49912109375,0.53236083984375,0.49018769334613427,0.49951888807227884,0.3796341663819124,0.2140535123924295,0.2780508396947014
0.64725,0.61,0.7020000000000001,0.60125,0.8295,0.5695,0.90125,0.8525,0.8165,0.74725,0.759,0.7282500000000001,0.49798583984375,0.49896240234375,0.532330322265625,0.49183297727748904,0.5013720597871901,0.3796341663819124,0.2140535123924295,0.2780508396947014
0.6455,0.60625,0.701,0.5975,0.8272499999999999,0.56475,0.89875,0.85,0.8145,0.74425,0.757,0.7247499999999999,0.4978759765625,0.49937744140625,0.5325439453125,0.4931337613125622,0.5017581372123137,0.38270868986728745,0.22172927390636002,0.30337206128251
0.64075,0.59575,0.69675,0.585,0.82075,0.532,0.8959999999999999,0.84675,0.81375,0.7415,0.758,0.7295,0.4979583740234375,0.498974609375,0.537774658203125,0.4931100027246525,0.5247980502086805,0.38270868986728745,0.22172927390636002,0.30337206128251
0.63775,0.589,0.6934999999999999,0.57625,0.8165,0.504,0.89575,0.846,0.815,0.74175,0.7609999999999999,0.73775,0.4986785888671875,0.4994903564453125,0.5466796875,0.49517700193977093,0.5509919175615664,0.3909976873689856,0.22489764275383337,0.3244405612044364
0.63475,0.58225,0.69025,0.5675,0.8122499999999999,0.47600000000000003,0.8955,0.8452500000000001,0.81625,0.742,0.764,0.746,0.500177001953125,0.4997344970703125,0.557904052734375,0.49590163961419864,0.5835946719168188,0.3909976873689856,0.22489764275383337,0.3244405612044364
0.6317499999999999,0.5755,0.687,0.55875,0.8079999999999999,0.44799999999999995,0.8952500000000001,0.8445,0.8175,0.74225,0.767,0.75425,0.5017852783203125,0.5009246826171875,0.569696044921875,0.4956105965871628,0.6224399996579878,0.6762939697018805,0.2507607725823052,0.6709483869178032
0.62875,0.56875,0.68375,0.55,0.80375,0.42,0.895,0.84375,0.81875,0.7425,0.77,0.7625,0.5039825439453125,0.5019744873046875,0.5786041259765625,0.49545616557995426,0.6680446537415687,0.6980820285997985,0.2615965461059636,0.6824087456621245
0.62875,0.56875,0.68375,0.55,0.80375,0.42,0.895,0.84375,0.81875,0.7425,0.77,0.7625,0.504412841796875,0.5043365478515625,0.5829254150390625,0.49396531293450113,0.6910132901090966,0.6980820285997985,0.2615965461059636,0.6824087456621245
0.63475,0.57525,0.6884999999999999,0.55525,0.8115000000000001,0.4445,0.90625,0.8547499999999999,0.825,0.7555,0.77625,0.76725,0.5035919189453125,0.5071533203125,0.586175537109375,0.4933119511399247,0.7114813357958607,0.7029292024718163,0.26890083182587743,0.6829788630007723
0.64075,0.58175,0.69325,0.5605,0.8192499999999999,0.469,0.9175,0.86575,0.83125,0.7685,0.7825,0.772,0.5373931884765625,0.5123779296875,0.5637359619140625,0.5065811351215839,0.6842777256989118,0.7029292024718163,0.26890083182587743,0.6829788630007723
0.6467499999999999,0.58825,0.698,0.56575,0.8270000000000001,0.4935,0.92875,0.8767499999999999,0.8375,0.7815000000000001,0.78875,0.7767499999999999,0.547015380859375,0.5130615234375,0.55858154296875,0.5198146818716625,0.6327215412564502,0.7043213437779132,0.2732820422871071,0.6804846437865979
0.653,0.599,0.70325,0.5792499999999999,0.8342499999999999,0.52575,0.9390000000000001,0.88725,0.8422499999999999,0.79325,0.794,0.7822499999999999,0.5664520263671875,0.5118072509765625,0.546563720703125,0.5291102381701684,0.5665953871250976,0.7043213437779132,0.2732820422871071,0.6804846437865979
0.65925,0.60975,0.7084999999999999,0.59275,0.8415,0.5579999999999999,0.9492499999999999,0.89775,0.847,0.805,0.79925,0.7877500000000001,0.5900482177734375,0.508917236328125,0.5290008544921875,0.5350617701083101,0.4977429335911916,0.43172385073886616,0.3210605348154618,0.35337665930847445
0.6595,0.614,0.7090000000000001,0.601,0.841,0.56575,0.94825,0.89725,0.8454999999999999,0.80375,0.79825,0.7885,0.6063385009765625,0.508642578125,0.5126678466796875,0.5350558304613326,0.4276906683022212,0.3791945856698925,0.29231521023005813,0.2783927915985034
0.65975,0.6182500000000001,0.7095,0.60925,0.8405,0.5735,0.9472499999999999,0.8967499999999999,0.8440000000000001,0.8025,0.7972499999999999,0.78925,0.58580322265625,0.50802001953125,0.5218353271484375,0.5233131372856843,0.39682229281522907,0.3791945856698925,0.29231521023005813,0.2783927915985034
0.66,0.6225,0.71,0.6175,0.84,0.58125,0.94625,0.89625,0.8425,0.80125,0.79625,0.79,0.5872039794921875,0.5108306884765625,0.5146392822265625,0.5176229492571632,0.38108221188215446,0.3563662737559579,0.2711237053307018,0.24436604518243407
0.65975,0.62275,0.71,0.6175,0.84,0.58175,0.94625,0.897,0.8427500000000001,0.8029999999999999,0.7977500000000001,0.7925,0.56099853515625,0.5120697021484375,0.5178436279296875,0.516114277903022,0.37459017100074343,0.33491909712986406,0.2539509341887527,0.20934354869829974
0.6595,0.623,0.71,0.6175,0.84,0.58225,0.94625,0.89775,0.843,0.80475,0.79925,0.795,0.53121337890625,0.5140594482421875,0.524652099609375,0.5195592763084516,0.37295082676281494,0.33491909712986406,0.2539509341887527,0.20934354869829974
0.65925,0.6232500000000001,0.71,0.6175,0.84,0.58275,0.94625,0.8985,0.84325,0.8065000000000001,0.8007500000000001,0.7975,0.5078582763671875,0.5117706298828125,0.526251220703125,0.526389877021127,0.37529698875881295,0.33491909712986406,0.2539509341887527,0.20934354869829974
0.659,0.6235,0.71,0.6175,0.84,0.58325,0.94625,0.89925,0.8434999999999999,0.80825,0.8022499999999999,0.8,0.484283447265625,0.5072998046875,0.5248565673828125,0.5319137540982009,0.3809574777628164,0.21204858219319936,0.14142616683756198,0.0015392522224698729
0.65875,0.62375,0.71,0.6175,0.84,0.58375,0.94625,0.9,0.84375,0.81,0.80375,0.8025,0.461663818359375,0.5022857666015625,0.52100830078125,0.5326086935841903,0.39546805014585384,0.2162051884212968,0.14081801119348092,0.0018725359100180375
0.65875,0.62375,0.71,0.6175,0.84,0.58375,0.94625,0.9,0.84375,0.81,0.80375,0.8025,0.4534332275390625,0.5010894775390625,0.514886474609375,0.5332620550304003,0.4171774811683719,0.2162051884212968,0.14081801119348092,0.0018725359100180375
0.659,0.624,0.71025,0.6175,0.8405,0.5835,0.9465,0.9,0.8452500000000001,0.8105,0.8045,0.8035,0.3866851806640625,0.501055908203125,0.5366729736328125,0.5173497254033038,0.45969351575806666,0.2155036147591202,0.14252284991783873,0.0020903590125685373
0.65925,0.62425,0.7105,0.6175,0.841,0.58325,0.94675,0.9,0.84675,0.8109999999999999,0.80525,0.8045,0.3956024169921875,0.480401611328125,0.5515716552734375,0.4796269894080564,0.4847885493665239,0.2155036147591202,0.14252284991783873,0.0020903590125685373
0.6595,0.6245,0.71075,0.6175,0.8415,0.583,0.9470000000000001,0.9,0.8482500000000001,0.8115000000000001,0.8059999999999999,0.8055,0.385205078125,0.4849365234375,0.548931884765625,0.45155618964473304,0.48007246585764113,0.21828569445332982,0.14301073661276792,0.0029711938148271034
0.65825,0.6214999999999999,0.7095,0.6145,0.8395,0.5805,0.943,0.89375,0.8465,0.80825,0.8027500000000001,0.8057500000000001,0.3979888916015625,0.474029541015625,0.577056884765625,0.4290389655185125,0.47423378716562176,0.2155058176771045,0.1431312624628993,0.002310994741074924
0.657,0.6185,0.70825,0.6114999999999999,0.8375,0.578,0.9390000000000001,0.8875,0.8447499999999999,0.805,0.7995,0.8059999999999999,0.4177001953125,0.47763671875,0.5945831298828125,0.4177714445655467,0.4774055617171919,0.21551682369536074,0.1419141819829809,0.002968998662255704
0.6555,0.61525,0.70675,0.6085,0.835,0.57575,0.93475,0.88125,0.8415,0.80125,0.7955,0.80525,0.4966064453125,0.4751312255859375,0.5721282958984375,0.42791043187284417,0.45745426768635544,0.21377499701716765,0.14191456733445015,0.0020891872007186307
0.654,0.612,0.70525,0.6054999999999999,0.8325,0.5735,0.9305,0.875,0.83825,0.7975,0.7915000000000001,0.8045,0.49146728515625,0.501202392578125,0.556964111328125,0.451621526760135,0.45292825209111987,0.21412908822523238,0.14142745285364178,0.0019784436961043216
0.6495000000000001,0.59875,0.701,0.59775,0.82675,0.5655,0.9227500000000001,0.8654999999999999,0.83175,0.7859999999999999,0.7857500000000001,0.79975,0.509051513671875,0.4975189208984375,0.564727783203125,0.47120456258547333,0.47193514025524486,0.21412908822523238,0.14142745285364178,0.0019784436961043216
0.6465000000000001,0.58875,0.69825,0.593,0.8234999999999999,0.55975,0.91925,0.86225,0.8284999999999999,0.77825,0.784,0.7957500000000001,0.5063262939453125,0.50908203125,0.543939208984375,0.484586601020925,0.48885127156854313,0.21481525003318414,0.14313177626485835,0.0013215873041122574
0.6435,0.57875,0.6955,0.58825,0.82025,0.5539999999999999,0.9157500000000001,0.8590000000000001,0.82525,0.7705,0.7822499999999999,0.79175,0.49964599609375,0.505963134765625,0.5341552734375,0.4862021864851483,0.4928130199577415,0.21481525003318414,0.14313177626485835,0.0013215873041122574
0.6405,0.56875,0.6927500000000001,0.5835,0.8170000000000001,0.54825,0.9122499999999999,0.85575,0.8220000000000001,0.76275,0.7805,0.7877500000000001,0.4928192138671875,0.507904052734375,0.535906982421875,0.4819018778698702,0.49754098359665844,0.21412248375711213,0.14154900630769127,0.0007713484457034891
0.6375,0.55875,0.69,0.57875,0.81375,0.5425,0.90875,0.8525,0.81875,0.755,0.77875,0.78375,0.495208740234375,0.501129150390625,0.5366943359375,0.4855963419128401,0.4991209312254661,0.2155058176771045,0.14252336523098003,0.002639204046225104
0.6375,0.55875,0.69,0.57875,0.81375,0.5425,0.90875,0.8525,0.81875,0.755,0.77875,0.78375,0.4949798583984375,0.4992767333984375,0.5328033447265625,0.48512710947648147,0.5025421714145767,0.21619197948505625,0.14167094511321,0.001980731122788241
0.6375,0.55875,0.69,0.57875,0.81375,0.5425,0.90875,0.8525,0.81875,0.755,0.77875,0.78375,0.49442138671875,0.498028564453125,0.5279632568359375,0.4863566175620301,0.5011285340404835,0.2148108441972155,0.1413058978884101,0.001979724433034412
0.6375,0.55875,0.69,0.57875,0.81375,0.5425,0.90875,0.8525,0.81875,0.755,0.77875,0.78375,0.4933349609375,0.4967254638671875,0.5242095947265625,0.4899501073741395,0.4944345454405331,0.2148108441972155,0.1413058978884101,0.001979724433034412
0.6375,0.55775,0.6895,0.578,0.8140000000000001,0.54175,0.9072499999999999,0.85225,0.8184999999999999,0.75325,0.7785,0.782,0.49293212890625,0.4961090087890625,0.5234405517578125,0.4939831316083525,0.49509978664518656,0.21515612801917572,0.14215857490715963,0.0013177263609833582
0.6375,0.55675,0.6890000000000001,0.57725,0.8142499999999999,0.541,0.90575,0.852,0.81825,0.7515000000000001,0.77825,0.7802500000000001,0.493170166015625,0.496148681640625,0.5246673583984375,0.49800427669376335,0.4971489670354948,0.21516273248729598,0.14264581934964002,0.0012122292987663103
