C0,C1,C2,C3,C4,C5,C6,C7,C8,C9,C10,C11,Ax,Ay,Az,Gr,Gp,Fx_norm,Fy_norm,Fz_norm
0.635,0.6175,0.685,0.5983333333333334,0.7395833333333333,0.5695833333333333,0.8854166666666667,0.835,0.7795833333333333,0.72,0.7345833333333333,0.6566666666666667,0.4968424432710147,0.5005708577137149,0.536136482565054,0.500019792574413,0.4993270524828577,0.2651693877667978,0.2937600880840208,0.2407679587446405
0.635,0.6175,0.685,0.5984375,0.7396875,0.5696875,0.8853125,0.835,0.7796875,0.72,0.7346875,0.6565625,0.4968469030969031,0.5005530184101613,0.5361290495219067,0.5000346370052227,0.4992726229048343,0.2651693877667978,0.2937600880840208,0.2407679587446405
0.635,0.6175,0.685,0.5985,0.7397499999999999,0.56975,0.8852500000000001,0.835,0.7797499999999999,0.72,0.7347499999999999,0.6565000000000001,0.49684957899243615,0.5005423148280291,0.5361245896960183,0.5000435436637085,0.4992399651580203,0.2651693877667978,0.2937600880840208,0.2407679587446405
0.635,0.6175,0.685,0.59875,0.74,0.57,0.885,0.835,0.78,0.72,0.735,0.65625,0.49688525759954333,0.5005209076637648,0.5361638361638361,0.500039585148826,0.4991885044529381,0.2651693877667978,0.2937600880840208,0.2407679587446405
0.635,0.61775,0.68525,0.599,0.7402500000000001,0.57075,0.885,0.83525,0.7802500000000001,0.72,0.7354999999999999,0.6555,0.4968995290423862,0.5005458826887398,0.5362244897959184,0.5000435436637085,0.4991291267258297,0.2651693877667978,0.2937600880840208,0.2407679587446405
0.635,0.618,0.6855,0.59925,0.7404999999999999,0.5715,0.885,0.8355,0.7805,0.72,0.736,0.6547499999999999,0.49687098615670044,0.500531611245897,0.5362316255173398,0.500019792574413,0.49910537562879514,0.2651693877667978,0.2937600880840208,0.2407679587446405
0.635,0.6182500000000001,0.6857500000000001,0.5995,0.74075,0.57225,0.885,0.83575,0.78075,0.72,0.7365,0.654,0.49688882546025404,0.5005173398030541,0.5362244897959184,0.4999841659404696,0.499101417102304,0.2651693877667978,0.2937600880840208,0.2407679587446405
0.635,0.6185,0.6859999999999999,0.59975,0.741,0.573,0.885,0.836,0.7809999999999999,0.72,0.737,0.65325,0.49687812187812186,0.5005102040816326,0.5362209219352077,0.499980207425587,0.49911329265082127,0.2651693877667978,0.2937600880840208,0.2407679587446405
0.635,0.61875,0.68625,0.6,0.74125,0.57375,0.885,0.83625,0.78125,0.72,0.7375,0.6525,0.49685671471385756,0.5005137719423434,0.5361959469102326,0.5,0.49912120968832546,0.2651693877667978,0.2937600880840208,0.2407679587446405
0.635,0.61875,0.68625,0.6,0.74125,0.57375,0.885,0.83625,0.78125,0.72,0.7375,0.6525,0.49683530754959326,0.5004959326387898,0.5361638361638361,0.5000237510892955,0.4991291267258297,0.2651693877667978,0.2937600880840208,0.2407679587446405
0.635,0.61875,0.68625,0.6,0.74125,0.57375,0.885,0.83625,0.78125,0.72,0.7375,0.6525,0.4968210361067504,0.5004780933352362,0.5361995147709433,0.5000791702976518,0.4990895415847428,0.26264037682075586,0.2936131681389565,0.24055019189228896
0.6355,0.619,0.68675,0.60025,0.7415,0.57475,0.8852500000000001,0.8370000000000001,0.7822499999999999,0.7197499999999999,0.7384999999999999,0.65225,0.49681390038532897,0.5004531183102612,0.5362137862137862,0.500126672476243,0.49905787346568203,0.2651693877667978,0.29508828088380035,0.24073538192583574
0.636,0.61925,0.6872499999999999,0.6004999999999999,0.74175,0.57575,0.8855,0.8377500000000001,0.78325,0.7195,0.7395,0.652,0.49683887541030397,0.500492364778079,0.5362173540744969,0.5001702161399515,0.4990222468201302,0.2651693877667978,0.29508828088380035,0.24073538192583574
0.6365,0.6195,0.6877500000000001,0.60075,0.742,0.57675,0.88575,0.8384999999999999,0.78425,0.71925,0.7404999999999999,0.6517499999999999,0.49691023262451833,0.5004995004995005,0.536242329099472,0.5001702161399515,0.4990024542495867,0.26580415463497914,0.2965612177411676,0.24094869479934902
0.637,0.61975,0.68825,0.601,0.74225,0.57775,0.8859999999999999,0.8392499999999999,0.78525,0.7190000000000001,0.7415,0.6515000000000001,0.4969459112316255,0.5004887969173684,0.536242329099472,0.5002018842590122,0.4989628690930218,0.2626443970826881,0.297592147742116,0.24051997638277212
0.6375,0.62,0.68875,0.60125,0.7425,0.57875,0.88625,0.84,0.78625,0.71875,0.7425,0.65125,0.4969887255601541,0.5005173398030541,0.5362209219352077,0.5001543820804211,0.49898662017457834,0.26580817881148,0.2964141405470924,0.2412659501681693
0.6375,0.62,0.68875,0.60125,0.7425,0.57875,0.88625,0.84,0.78625,0.71875,0.7425,0.65125,0.496978021978022,0.5005886970172685,0.5362458969601827,0.5001306309911255,0.4990222468201302,0.2664389215031605,0.29862432293581354,0.24169535276595117
0.63775,0.6204999999999999,0.68875,0.60175,0.743,0.58,0.8867499999999999,0.84025,0.78675,0.7204999999999999,0.7432500000000001,0.6505,0.4969744541173113,0.5005779934351363,0.5362780077065792,0.5001147969315952,0.49904995642817784,0.2664389215031605,0.29862432293581354,0.24169535276595117
0.638,0.621,0.68875,0.6022500000000001,0.7434999999999999,0.58125,0.88725,0.8405,0.7872499999999999,0.72225,0.7440000000000001,0.6497499999999999,0.4968995290423862,0.5005458826887398,0.5362708719851577,0.5001543820804211,0.49903808087966056,0.26613159655303764,0.3008360595298751,0.2430668490794414
0.63825,0.6214999999999999,0.68875,0.60275,0.7440000000000001,0.5825,0.88775,0.84075,0.7877500000000001,0.7240000000000001,0.7447499999999999,0.649,0.49683887541030397,0.5005458826887398,0.536292279149422,0.5001900087143645,0.49896682761951294,0.26613159655303764,0.3008360595298751,0.2430668490794414
0.6385000000000001,0.622,0.68875,0.6032500000000001,0.7445,0.58375,0.88825,0.841,0.78825,0.72575,0.7454999999999999,0.64825,0.49687455401741115,0.5005601541315827,0.5363350934779506,0.5003008471349465,0.49882432109921765,0.2673971100274681,0.3012774428756809,0.24263433842191132
0.63875,0.6225,0.68875,0.60375,0.745,0.585,0.88875,0.84125,0.78875,0.7275,0.74625,0.6475,0.4969209362066505,0.5005744255744256,0.5362851434280006,0.5003918929772462,0.4986501464443836,0.26834724628420537,0.3020149992481028,0.24155402514058794
0.63875,0.6225,0.68875,0.60375,0.745,0.585,0.88875,0.84125,0.78875,0.7275,0.74625,0.6475,0.496978021978022,0.5005494505494505,0.5362637362637362,0.5003998100070113,0.4985036813975972,0.26866463167558036,0.30127806455781714,0.24263244910244078
0.63875,0.6225,0.68875,0.60375,0.745,0.585,0.88875,0.84125,0.78875,0.7275,0.74625,0.6475,0.4971028971028971,0.5005851291565577,0.5362851434280006,0.5004156440665417,0.4983928429808846,0.2689820170669553,0.30186714677983434,0.24176598665420632
0.63875,0.6225,0.68875,0.60375,0.745,0.585,0.88875,0.84125,0.78875,0.7275,0.74625,0.6475,0.4971813900385329,0.5005886970172685,0.5362708719851577,0.5003760589177157,0.4983730503948631,0.26740113028940027,0.30127821997835114,0.2417672067546852
0.63875,0.6225,0.68875,0.60375,0.745,0.585,0.88875,0.84125,0.78875,0.7275,0.74625,0.6475,0.49713500784929354,0.5005637219922934,0.5362566005423148,0.5003127226757248,0.49838096741688925,0.2680419295077643,0.30245684885551083,0.24090040153574768
0.63875,0.623,0.6890000000000001,0.6045,0.7454999999999999,0.58625,0.8895000000000001,0.84175,0.7895,0.727,0.74575,0.6465000000000001,0.49708862566005424,0.5005458826887398,0.5363493649207935,0.5002295938631903,0.4983651333418809,0.2680419295077643,0.30245684885551083,0.24090040153574768
0.63875,0.6235,0.6892499999999999,0.60525,0.746,0.5875,0.8902500000000001,0.8422499999999999,0.79025,0.7265,0.7452500000000001,0.6455,0.49707435421721136,0.5005886970172685,0.536406450692165,0.5001820916845993,0.49832950671180704,0.26741520707801597,0.30393025197448026,0.24090466032571334
0.63875,0.624,0.6895,0.606,0.7465,0.58875,0.8909999999999999,0.8427500000000001,0.7909999999999999,0.726,0.7447499999999999,0.6445000000000001,0.4971492792921364,0.5006529185100613,0.5364242899957186,0.5000554192083563,0.4983532578088416,0.2680539942081296,0.3059928909075241,0.24003417100181831
0.63875,0.6245,0.68975,0.60675,0.747,0.59,0.8917499999999999,0.84325,0.79175,0.7254999999999999,0.74425,0.6435,0.4972634508348794,0.50074568288854,0.5364456971599829,0.4999604148511741,0.49836909188385003,0.2639923670296996,0.3224932252692044,0.2333404046113258
0.63875,0.625,0.69,0.6075,0.7475,0.59125,0.8925,0.84375,0.7925,0.725,0.74375,0.6425,0.4974347081489939,0.5007992007992008,0.5363957471100328,0.4996595677239666,0.49862243683633595,0.2605272887863989,0.3249977138096562,0.23130350807098235
0.63875,0.625,0.69,0.6075,0.7475,0.59125,0.8925,0.84375,0.7925,0.725,0.74375,0.6425,0.49767375481661197,0.5008562865705722,0.5363315256172398,0.4992953843586376,0.4990578734811601,0.2605272887863989,0.3249977138096562,0.23130350807098235
0.63875,0.625,0.69,0.6075,0.7475,0.59125,0.8925,0.84375,0.7925,0.725,0.74375,0.6425,0.4978414442700157,0.5009312116454974,0.5362387612387612,0.498840155158748,0.4996437336683057,0.26054136557501456,0.33059499418143,0.22828978983792375
0.6395000000000001,0.62575,0.69,0.608,0.7484999999999999,0.5925,0.8945000000000001,0.845,0.7945,0.725,0.74425,0.64425,0.4977843584986442,0.5008241758241758,0.5361602683031255,0.4984878473225888,0.5002454279304598,0.2602461014106884,0.33383548488896336,0.22452606346270074
0.6402500000000001,0.6265,0.69,0.6085,0.7495,0.59375,0.8965000000000001,0.84625,0.7965000000000001,0.725,0.7447499999999999,0.6459999999999999,0.49771656914514056,0.5006243756243757,0.536178107606679,0.4981751246584725,0.5009183754527614,0.2593100380279982,0.3366338133195438,0.22076636124273596
0.6409999999999999,0.62725,0.69,0.609,0.7505,0.595,0.8985,0.8475,0.7985,0.725,0.7452500000000001,0.64775,0.49767375481661197,0.5004887969173684,0.5361459968602825,0.4981909587180029,0.5013696461416379,0.2593100380279982,0.3366338133195438,0.22076636124273596
0.6417499999999999,0.628,0.69,0.6095,0.7515000000000001,0.59625,0.9005,0.84875,0.8005,0.725,0.74575,0.6495000000000001,0.4975774225774226,0.500328243185386,0.5361210218353075,0.49830179713471545,0.5016863273322453,0.22912475664301504,0.3340994584378805,0.14749794824530185
0.6425,0.62875,0.69,0.61,0.7525,0.5975,0.9025,0.85,0.8025,0.725,0.74625,0.65125,0.49747038675610106,0.5002854288568575,0.5360460967603825,0.498539308012193,0.5020109255758349,0.2278833725693152,0.3292341356423495,0.13913267208294433
0.6425,0.62875,0.69,0.61,0.7525,0.5975,0.9025,0.85,0.8025,0.725,0.74625,0.65125,0.49737405451691163,0.5002640216925931,0.5361103182531755,0.49871744119351813,0.5022603119863517,0.2278833725693152,0.3292341356423495,0.13913267208294433
0.6425,0.62875,0.6905,0.61,0.75325,0.5972500000000001,0.90425,0.8504999999999999,0.8045,0.7275,0.748,0.659,0.4972277722277722,0.5003996003996004,0.5359033823319538,0.49901037128709097,0.5021969757482302,0.22189531573015517,0.3245132424063844,0.12348057364450861
0.6425,0.62875,0.691,0.61,0.754,0.597,0.9059999999999999,0.851,0.8065000000000001,0.73,0.7497499999999999,0.66675,0.49708148993863277,0.500328243185386,0.535899814471243,0.499228089601764,0.5021732246511956,0.21969575096128494,0.3231838062423326,0.11608620910064055
0.6425,0.62875,0.6915,0.61,0.7547499999999999,0.59675,0.9077500000000001,0.8515,0.8085,0.7325,0.7515000000000001,0.6745,0.4970386756101042,0.5003496503496504,0.5357963465106322,0.4995843559334583,0.5022801045723732,0.21941054332364224,0.3044636461049134,0.0956202899156783
0.6425,0.62875,0.6920000000000001,0.61,0.7555,0.5965,0.9095,0.852,0.8105,0.735,0.75325,0.6822499999999999,0.49703153988868276,0.5002818609961467,0.5356821749678893,0.4997941572261052,0.5022167683342517,0.2187797967173931,0.29974710830085505,0.092623718378981
0.6425,0.62875,0.6925,0.61,0.75625,0.59625,0.91125,0.8525,0.8125,0.7375,0.755,0.69,0.4971207364064507,0.5004067361210218,0.5356607678036249,0.49976248910704446,0.502185100246147,0.22162418488112817,0.29429425931712405,0.0898540739696348
0.6417499999999999,0.62725,0.6920000000000001,0.609,0.754,0.5925,0.90975,0.85075,0.8115000000000001,0.737,0.7552500000000001,0.69125,0.49727058655630085,0.5003888968174682,0.5358712715855573,0.49927559175713804,0.5024582377846545,0.2244705812185451,0.2920842341774139,0.0901791409739622
0.6409999999999999,0.62575,0.6915,0.608,0.7517499999999999,0.58875,0.90825,0.8490000000000001,0.8105,0.7365,0.7555,0.6925,0.497142143570715,0.500467389753104,0.535989010989011,0.49867785602921416,0.5027115827371403,0.2244705812185451,0.2920842341774139,0.0901791409739622
0.6402500000000001,0.62425,0.691,0.607,0.7495,0.585,0.90675,0.84725,0.8095,0.736,0.75575,0.69375,0.4969851576994434,0.5002961324389896,0.5360675039246467,0.49800490852239054,0.502786794477345,0.22603939938116618,0.28972790894629863,0.09221807985641149
0.6395000000000001,0.62275,0.6905,0.606,0.74725,0.58125,0.9052500000000001,0.8454999999999999,0.8085,0.7354999999999999,0.7559999999999999,0.695,0.4967639503353789,0.5001284429855859,0.5361638361638361,0.4976288496124138,0.5027709604023366,0.2607102792092659,0.2996154323674646,0.14441953136193605
0.63875,0.62125,0.69,0.605,0.745,0.5775,0.90375,0.84375,0.8075,0.735,0.75625,0.69625,0.4965070643642072,0.5000927643784787,0.5357892107892108,0.49742300685399704,0.5025017813748422,0.35176247108738795,0.2746102102832329,0.28284566121224897
0.63875,0.62125,0.69,0.605,0.745,0.5775,0.90375,0.84375,0.8075,0.735,0.75625,0.69625,0.4962430426716141,0.49987155701441416,0.5356643356643357,0.49728445887567096,0.5019080041308448,0.35176247108738795,0.2746102102832329,0.28284566121224897
0.63875,0.62125,0.69,0.605,0.745,0.5775,0.90375,0.84375,0.8075,0.735,0.75625,0.69625,0.4963393749108035,0.4997930640787784,0.5359604681033252,0.4973002929197233,0.5013300609695949,0.364678672324899,0.2725545725881282,0.3018675520346874
0.63875,0.62125,0.69,0.605,0.745,0.5775,0.90375,0.84375,0.8075,0.735,0.75625,0.69625,0.49645354645354645,0.49992864278578564,0.5364242899957186,0.4974586334840709,0.5009935872239222,0.364678672324899,0.2725545725881282,0.3018675520346874
0.63475,0.6175,0.6859999999999999,0.6015,0.7404999999999999,0.57175,0.9002500000000001,0.84075,0.8057500000000001,0.7332500000000001,0.75625,0.6942499999999999,0.49645354645354645,0.49992864278578564,0.5366347937776509,0.49786636051310834,0.5009421265188398,0.42807260516324086,0.25092291775810355,0.38087423360415373
0.63075,0.61375,0.682,0.598,0.736,0.5660000000000001,0.8967499999999999,0.8377500000000001,0.804,0.7315,0.75625,0.6922499999999999,0.4963108320251177,0.4997716569145141,0.5371699728842586,0.4984403451517367,0.5010806745281221,0.42807260516324086,0.25092291775810355,0.38087423360415373
0.6267499999999999,0.61,0.6779999999999999,0.5945,0.7315,0.56025,0.89325,0.83475,0.8022499999999999,0.7297499999999999,0.75625,0.69025,0.49643927501070356,0.49987155701441416,0.5375231910946197,0.49929142582440744,0.5015438207539074,0.45234020973757394,0.24238816369434069,0.41343393223645186
0.62275,0.60625,0.674,0.591,0.727,0.5545,0.8897499999999999,0.83175,0.8005,0.728,0.75625,0.68825,0.4965427429713144,0.4999643213928928,0.5377479663193949,0.5002652204932642,0.5023394822375694,0.49330245500759284,0.23180337256012912,0.4837013618845878
0.61875,0.6025,0.67,0.5875,0.7225,0.54875,0.88625,0.82875,0.79875,0.72625,0.75625,0.68625,0.49641429998572856,0.4999785928357357,0.5380012844298558,0.5011915129990079,0.5033014013424307,0.5156778236777472,0.2306348551600662,0.515506822148981
0.61875,0.6025,0.67,0.5875,0.7225,0.54875,0.88625,0.82875,0.79875,0.72625,0.75625,0.68625,0.49642500356786073,0.5004352790067076,0.5387612387612387,0.5016586177706318,0.5044770803206033,0.5390234416580059,0.2284349469828834,0.5452769351422008
0.61875,0.6025,0.67,0.5875,0.7225,0.54875,0.88625,0.82875,0.79875,0.72625,0.75625,0.68625,0.4967710860568003,0.5005886970172685,0.5396389324960753,0.5019040456856134,0.5063930015082999,0.5390234416580059,0.2284349469828834,0.5452769351422008
0.6185,0.6025,0.67025,0.5875,0.72275,0.5457500000000001,0.8875,0.82875,0.8,0.7275,0.75775,0.695,0.49685314685314685,0.5007492507492507,0.5403917511060368,0.5021059299330172,0.5082455864578751,0.6728158053932046,0.16246223799853193,0.6650606675852269
0.6182500000000001,0.6025,0.6705,0.5875,0.723,0.54275,0.88875,0.82875,0.80125,0.72875,0.75925,0.70375,0.49713143998858284,0.5001998001998001,0.5433923219637505,0.5023355237884685,0.5111907216233921,0.6835424944739602,0.1606956166715701,0.673252587464501
0.618,0.6025,0.6707500000000001,0.5875,0.7232500000000001,0.5397500000000001,0.89,0.82875,0.8025,0.73,0.76075,0.7125,0.49693163978878263,0.5013736263736264,0.5471885257599544,0.5020900958580087,0.5158736448262365,0.6835424944739602,0.1606956166715701,0.673252587464501
0.61775,0.6025,0.6709999999999999,0.5875,0.7234999999999999,0.53675,0.89125,0.82875,0.80375,0.73125,0.76225,0.72125,0.4972099329242186,0.49994648208933923,0.5544205794205794,0.502189058726204,0.5223616506607626,0.6920615782619812,0.15627229890398112,0.680310394704382
0.6175,0.6025,0.67125,0.5875,0.72375,0.53375,0.8925,0.82875,0.805,0.7325,0.76375,0.73,0.4968031968031968,0.5007742257742258,0.5600114171542743,0.5029174254955571,0.5312881015081851,0.6135820881429942,0.1547487936902686,0.5715379527855444
0.6175,0.6025,0.67125,0.5875,0.72375,0.53375,0.8925,0.82875,0.805,0.7325,0.76375,0.73,0.49746681889539035,0.50079563293849,0.5649136577708006,0.5049916872476014,0.541425858025766,0.5908833017312821,0.16254863353068824,0.54888106843021
0.6175,0.6025,0.67125,0.5875,0.72375,0.53375,0.8925,0.82875,0.805,0.7325,0.76375,0.73,0.49705651491365777,0.5008634222919938,0.5658912516055373,0.5053835802403255,0.55241865341747,0.5908833017312821,0.16254863353068824,0.54888106843021
0.6175,0.6025,0.67125,0.5875,0.72375,0.53375,0.8925,0.82875,0.805,0.7325,0.76375,0.73,0.49776651919509063,0.5018659911517054,0.5669402026544884,0.5071609533877839,0.5629047596471484,0.5564795324902773,0.16975861587489724,0.5251315188064303
0.62275,0.606,0.67525,0.591,0.7295,0.541,0.89825,0.8355,0.8115000000000001,0.74275,0.77075,0.7415,0.4956258027686599,0.49927572427572425,0.5641144569715998,0.5091797958618205,0.5695590235014336,0.4807398332625527,0.2014150688556575,0.47051154727032696
0.628,0.6095,0.67925,0.5945,0.7352500000000001,0.54825,0.904,0.8422499999999999,0.818,0.753,0.77775,0.753,0.48969958612815756,0.49551163122591696,0.5610924789496218,0.5115074025663506,0.5697134057714608,0.4807398332625527,0.2014150688556575,0.47051154727032696
0.63325,0.613,0.68325,0.598,0.741,0.5555,0.90975,0.8490000000000001,0.8245,0.76325,0.78475,0.7645000000000001,0.4816362209219352,0.4959611816754674,0.5530612244897959,0.5148998501264237,0.5651848649624679,0.4492045815860135,0.21481203364731685,0.4379292801796737
0.6385000000000001,0.6164999999999999,0.6872499999999999,0.6015,0.74675,0.56275,0.9155,0.85575,0.831,0.7735,0.79175,0.7759999999999999,0.47435064935064936,0.49701013272441846,0.5464000285428857,0.5197371555373832,0.5583366346567077,0.339442830528712,0.25706276938572614,0.3299446042281865
0.64375,0.62,0.69125,0.605,0.7525,0.57,0.92125,0.8625,0.8375,0.78375,0.79875,0.7875,0.45980091337234197,0.49876908805480236,0.5359461966604824,0.5267397688561171,0.5480247027877804,0.339442830528712,0.25706276938572614,0.3299446042281865
0.64375,0.62,0.69125,0.605,0.7525,0.57,0.92125,0.8625,0.8375,0.78375,0.79875,0.7875,0.45380333951762525,0.5012879977165692,0.5232160696446411,0.5313514386749895,0.5362877057159003,0.31265023135570064,0.2681026318436001,0.2933756601831751
0.6447499999999999,0.623,0.6925,0.6065,0.75425,0.5742499999999999,0.9245,0.8654999999999999,0.8390000000000001,0.78675,0.79925,0.79,0.4561759668902526,0.501163122591694,0.511292279149422,0.5318620872457549,0.5243646589669226,0.2568473829339654,0.29047728825016866,0.22226838110343633
0.64575,0.626,0.69375,0.608,0.7559999999999999,0.5785,0.9277500000000001,0.8684999999999999,0.8405,0.78975,0.79975,0.7925,0.4587733694876552,0.49858712715855574,0.5050806336520622,0.5268228975564356,0.5144644131101264,0.15728816805361923,0.2994109592844077,0.0057099859084243495
0.6467499999999999,0.629,0.695,0.6095,0.75775,0.58275,0.9309999999999999,0.8715,0.8420000000000001,0.7927500000000001,0.80025,0.795,0.46146353646353644,0.4980840587983445,0.5022406165263308,0.5206278215059214,0.5046868813114282,0.15728816805361923,0.2994109592844077,0.0057099859084243495
0.64775,0.632,0.69625,0.611,0.7595000000000001,0.5870000000000001,0.93425,0.8745,0.8434999999999999,0.7957500000000001,0.8007500000000001,0.7975,0.47293064078778363,0.49473383759098044,0.5013771942343371,0.5115865730536086,0.4968411049921279,0.15886301856642296,0.29277979409306193,0.0027006094376047845
0.64875,0.635,0.6975,0.6125,0.76125,0.59125,0.9375,0.8775,0.845,0.79875,0.80125,0.8,0.48086199514770944,0.49647138575710004,0.5022834308548594,0.5048927245225779,0.4916435751718465,0.15981517082597926,0.2921908672915787,0.0015145187495520186
0.64875,0.635,0.6975,0.6125,0.76125,0.59125,0.9375,0.8775,0.845,0.79875,0.80125,0.8,0.48694519765948335,0.49837305551591266,0.5040887683744827,0.5016942444045751,0.4880373681408915,0.16012853204085342,0.29307503459647366,0.0018336831607602523
0.64875,0.635,0.6975,0.6125,0.76125,0.59125,0.9375,0.8775,0.845,0.79875,0.80125,0.8,0.493866847438276,0.4990402454688169,0.505969030969031,0.5008629562753613,0.48511994252151,0.15981517082597926,0.2930755008580758,0.002479932434780063
0.64925,0.6355,0.6977500000000001,0.6132500000000001,0.7609999999999999,0.593,0.9375,0.87775,0.846,0.8,0.8015000000000001,0.80125,0.50069573283859,0.4976345083487941,0.5044776651919509,0.5011875545073423,0.4820798028440303,0.15727811152693574,0.29248642046453543,0.002156967621411477
0.6497499999999999,0.636,0.698,0.614,0.76075,0.59475,0.9375,0.878,0.847,0.80125,0.80175,0.8025,0.5051198801198801,0.49552947052947055,0.50357856429285,0.4993389280494327,0.4778362749518036,0.15633400370581246,0.2927813482984023,0.0016204818237455826
0.6502500000000001,0.6365,0.69825,0.61475,0.7605,0.5965,0.9375,0.87825,0.848,0.8025,0.802,0.80375,0.5069323533609248,0.49340302554588267,0.5034501213072642,0.4969836116749427,0.47398859840853363,0.15885899830449074,0.29248642046453543,0.0020524293579777387
0.65075,0.637,0.6984999999999999,0.6154999999999999,0.7602500000000001,0.5982500000000001,0.9375,0.8785,0.8490000000000001,0.80375,0.8022499999999999,0.805,0.5043313829028114,0.4941308691308691,0.5023619237904953,0.4929538434393345,0.471851000108807,0.15885899830449074,0.29248642046453543,0.0020524293579777387
0.6515000000000001,0.63825,0.6995,0.61675,0.76075,0.6004999999999999,0.938,0.8797499999999999,0.85125,0.80625,0.8029999999999999,0.80675,0.4982838589981447,0.4958041958041958,0.501630512344798,0.49313197660131214,0.47660517668014546,0.15823227587474245,0.2927813482984023,0.001404611091870611
0.6517499999999999,0.639,0.70025,0.61725,0.7615000000000001,0.601,0.9384999999999999,0.88075,0.8525,0.8075,0.8035,0.8072499999999999,0.4922113600685029,0.4974133009847296,0.5008741258741258,0.4937930486021831,0.4813316436434362,0.15949376517267205,0.2926334958301338,0.002587799790657413
0.652,0.63975,0.701,0.61775,0.76225,0.6015,0.9390000000000001,0.8817499999999999,0.85375,0.80875,0.804,0.8077500000000001,0.48614242899957183,0.49884758099043813,0.5000713572142144,0.4965165068414066,0.48707940723748216,0.15980511429929578,0.2932231979058103,0.0025880242238558605
0.65225,0.6405,0.70175,0.6182500000000001,0.763,0.602,0.9395,0.88275,0.855,0.81,0.8045,0.80825,0.47927429713144,0.5001284429855859,0.49897245611531327,0.4995051855971113,0.49362679083007277,0.15981315873772886,0.2930761225402119,0.002372718655580612
0.6525,0.64125,0.7025,0.61875,0.76375,0.6025,0.94,0.88375,0.85625,0.81125,0.805,0.80875,0.4732588839731697,0.49997145711431423,0.49859783074068786,0.5045087484706202,0.5034914100567952,0.15981315873772886,0.2930761225402119,0.002372718655580612
0.6525,0.64125,0.7025,0.61875,0.76375,0.6025,0.94,0.88375,0.85625,0.81125,0.805,0.80875,0.4699764521193093,0.4986798915370344,0.4977629513343799,0.5064167526362906,0.5097537806242732,0.1588549741279899,0.2924868867261376,0.0033427060173527442
0.6525,0.64125,0.7025,0.61875,0.76375,0.6025,0.94,0.88375,0.85625,0.81125,0.805,0.80875,0.4774725274725275,0.49205437419723136,0.5084451263022691,0.4861412403440749,0.48665188789328906,0.15885899830449074,0.29248704214667165,0.0022661788560770974
0.65225,0.6402500000000001,0.7025,0.619,0.76375,0.6022500000000001,0.94,0.88375,0.857,0.8122499999999999,0.8057500000000001,0.80975,0.4853539317825032,0.48580348223205366,0.519473383759098,0.46558863203329476,0.46367270911205666,0.15980511429929578,0.2935184384092221,0.0014039439131806855
0.652,0.63925,0.7025,0.61925,0.76375,0.602,0.94,0.88375,0.85775,0.81325,0.8065000000000001,0.8107500000000001,0.49251462822891395,0.505526616240902,0.5543670615099187,0.46940068169884214,0.4357335118214057,0.15822623960999121,0.2930764333812801,0.0015106054506918408
0.6517499999999999,0.63825,0.7025,0.6195,0.76375,0.60175,0.94,0.88375,0.8584999999999999,0.8142499999999999,0.8072499999999999,0.81175,0.4981018981018981,0.49859783074068786,0.5626944484087342,0.4680152014821958,0.407746811531827,0.15853759265118353,0.29292904717461365,0.002264167118498302
0.6515000000000001,0.63725,0.7025,0.61975,0.76375,0.6015,0.94,0.88375,0.85925,0.81525,0.8079999999999999,0.8127500000000001,0.5087662337662338,0.5119559012416155,0.5809226487797916,0.45659488640578166,0.3786398506753125,0.16329030168139488,0.2929292025951477,0.0029135387343789117
0.65125,0.63625,0.7025,0.62,0.76375,0.60125,0.94,0.88375,0.86,0.81625,0.80875,0.81375,0.5068360211217354,0.5019551876694733,0.5713893249607536,0.47660913669252924,0.3944184907419375,0.16329030168139488,0.2929292025951477,0.0029135387343789117
0.65125,0.63625,0.7025,0.62,0.76375,0.60125,0.94,0.88375,0.86,0.81625,0.80875,0.81375,0.4986798915370344,0.5059155130583702,0.5806479235050663,0.4901076714438348,0.4075211747634082,0.15822623960999121,0.29366582644436534,0.002483831451527615
0.65125,0.63625,0.7025,0.62,0.76375,0.60125,0.94,0.88375,0.86,0.81625,0.80875,0.81375,0.5017625231910946,0.48714142999857285,0.5631868131868132,0.48046868799493603,0.43230147710809935,0.15663731230857172,0.3038344343010076,0.013557823850657997
0.65125,0.63625,0.7025,0.62,0.76375,0.60125,0.94,0.88375,0.86,0.81625,0.80875,0.81375,0.5026651919509062,0.4932888540031397,0.5650599400599401,0.47834296550685346,0.458688937462501,0.10850561688919008,0.337863078206693,0.018795877070194943
0.65125,0.63625,0.7025,0.62,0.76375,0.60125,0.94,0.88375,0.86,0.81625,0.80875,0.81375,0.49928999571856714,0.48100470957613817,0.55497002997003,0.4871902459482777,0.48459741820101265,0.44423367841769,0.39661002874839213,0.22068087599764907
0.644,0.629,0.696,0.61275,0.7552500000000001,0.58975,0.93325,0.8740000000000001,0.85175,0.8025,0.79975,0.802,0.4952868560011417,0.4980626516340802,0.5581275866990153,0.4859591478468781,0.49292613366876736,0.44423367841769,0.39661002874839213,0.22068087599764907
0.6367499999999999,0.62175,0.6895,0.6054999999999999,0.74675,0.57825,0.9265000000000001,0.86425,0.8434999999999999,0.78875,0.7907500000000001,0.79025,0.49727058655630085,0.5001034679606108,0.5428892536035393,0.49057081778957495,0.5026205367361908,0.4748720906887164,0.5498176742516196,0.5982251833548501
0.6295000000000001,0.6145,0.6829999999999999,0.5982500000000001,0.7382500000000001,0.56675,0.91975,0.8545,0.83525,0.775,0.78175,0.7785,0.491590552304838,0.4987833594976452,0.5332488939631796,0.49342886540324316,0.5030480562970765,0.4748720906887164,0.5498176742516196,0.5982251833548501
0.62225,0.6072500000000001,0.6765000000000001,0.591,0.7297499999999999,0.55525,0.9129999999999999,0.8447499999999999,0.8270000000000001,0.76125,0.77275,0.7667499999999999,0.49101969459112316,0.49942557442557445,0.530994005994006,0.49342886540324316,0.4988322378271609,0.36018034761932693,0.6243623193769064,0.6264031053491392
0.615,0.6,0.67,0.58375,0.72125,0.54375,0.90625,0.835,0.81875,0.7475,0.76375,0.755,0.49209362066504925,0.4987441130298273,0.5330276865991151,0.49348824309939543,0.4955783386787993,0.4571565892257482,0.4010055792662176,0.6004446631031354
0.615,0.6,0.67,0.58375,0.72125,0.54375,0.90625,0.835,0.81875,0.7475,0.76375,0.755,0.49428785500214073,0.49747752247752247,0.5363386613386614,0.49497268618423707,0.4955070854186516,0.543251641558676,0.2866751772147441,0.5770389526204815
0.615,0.6,0.67,0.58375,0.72125,0.54375,0.90625,0.835,0.81875,0.7475,0.76375,0.755,0.4961467104324247,0.4978735550164122,0.5379763094048808,0.4971815374345504,0.496294829884157,0.6043156270924348,0.18928744002177597,0.566048969648133
0.613,0.59775,0.6679999999999999,0.58175,0.71925,0.54,0.903,0.8327500000000001,0.8172499999999999,0.74425,0.762,0.745,0.4972099329242186,0.49834451263022694,0.53926430712145,0.4997229039814356,0.49877681882775826,0.7077078818335176,0.0609737848692848,0.5908303672241827
0.611,0.5954999999999999,0.6659999999999999,0.57975,0.7172499999999999,0.53625,0.8997499999999999,0.8305,0.81575,0.741,0.7602500000000001,0.735,0.4980662194947909,0.49855858427287,0.5405059226487798,0.5027907529574019,0.5021098885059424,0.7151984009832896,0.04757744175976147,0.6276567463493207
0.609,0.59325,0.664,0.57775,0.71525,0.5325,0.8965000000000001,0.82825,0.8142499999999999,0.73775,0.7585,0.725,0.4968174682460397,0.4987833594976452,0.5394105894105894,0.5053281610242302,0.5043820760562894,0.7052851083641837,0.0802992037635993,0.6722374917502436
0.607,0.591,0.662,0.57575,0.71325,0.52875,0.89325,0.826,0.8127500000000001,0.7345,0.7567499999999999,0.715,0.4970600827743685,0.4998394462680177,0.5401420008562866,0.507054073373738,0.5062069512739925,0.702010728329285,0.19421918406812408,0.7649022854851438
0.605,0.58875,0.66,0.57375,0.71125,0.525,0.89,0.82375,0.81125,0.73125,0.755,0.705,0.49845154845154843,0.5009133723419438,0.5433281004709576,0.5077151453630004,0.5097696145599793,0.7016712256254296,0.234447412283855,0.7977026547177454
0.605,0.58875,0.66,0.57375,0.71125,0.525,0.89,0.82375,0.81125,0.73125,0.755,0.705,0.49858355929784504,0.50218709861567,0.5444162979877265,0.5083049640921152,0.5133876970620612,0.7449516784088588,0.19187203779090145,0.7995378375003315
0.605,0.58875,0.66,0.57375,0.71125,0.525,0.89,0.82375,0.81125,0.73125,0.755,0.705,0.49923647780790636,0.5047595261880976,0.5472206365063508,0.5102050513595839,0.5181933341991796,0.7683998502567908,0.17846371815787296,0.7921745256698206
0.605,0.58875,0.66,0.57375,0.71125,0.525,0.89,0.82375,0.81125,0.73125,0.755,0.705,0.49968959611816754,0.503489367775082,0.5547381190238333,0.5116934529863947,0.52468134015753,0.7744401900739131,0.18789088047178854,0.7933647180446001
0.61,0.593,0.66425,0.57775,0.71575,0.5285,0.89275,0.82625,0.8165,0.7397499999999999,0.76,0.71875,0.5012594548308834,0.503161124589696,0.5624375624375625,0.5128137128103841,0.5344549135380833,0.7665498447184594,0.20674722739503912,0.798295737807355
0.615,0.5972500000000001,0.6685,0.58175,0.7202500000000001,0.532,0.8955,0.82875,0.82175,0.7482500000000001,0.765,0.7325,0.5004745254745254,0.5019409162266305,0.5657842157842158,0.5153036186212311,0.5452893689845615,0.7558070667608376,0.22236090772327985,0.7947488655894765
0.62,0.6015,0.6727500000000001,0.58575,0.7247499999999999,0.5355,0.89825,0.83125,0.8270000000000001,0.7567499999999999,0.77,0.74625,0.5010346796061081,0.5010168403025546,0.5699514770943342,0.5179281138684348,0.5572520013389676,0.5814301666488215,0.2067864921073677,0.5423408082265491
0.625,0.60575,0.677,0.58975,0.72925,0.539,0.9009999999999999,0.83375,0.8322499999999999,0.7652500000000001,0.775,0.76,0.5017304124446982,0.5005423148280291,0.5769266447837876,0.5193294280672213,0.5709840887043863,0.5814301666488215,0.2067864921073677,0.5423408082265491
0.63,0.61,0.68125,0.59375,0.73375,0.5425,0.90375,0.83625,0.8375,0.77375,0.78,0.77375,0.5035571571285857,0.5039853004138718,0.5762951334379905,0.5206634474240049,0.5831367295874204,0.5480147437684688,0.21664103163425708,0.5066997403941748
0.63,0.61,0.68125,0.59375,0.73375,0.5425,0.90375,0.83625,0.8375,0.77375,0.78,0.77375,0.5023976023976024,0.5055837020122734,0.5843014128728414,0.5247090495798411,0.589197215365763,0.3999702422325643,0.2668276367499064,0.38588917302041126
0.63,0.61,0.68125,0.59375,0.73375,0.5425,0.90375,0.83625,0.8375,0.77375,0.78,0.77375,0.4991579848722706,0.5118738404452691,0.5783038390181248,0.5408320809404187,0.5837027962598614,0.3999702422325643,0.2668276367499064,0.38588917302041126
0.63,0.61,0.68125,0.59375,0.73375,0.5425,0.90375,0.83625,0.8375,0.77375,0.78,0.77375,0.4832917082917083,0.5124625374625374,0.5666012558869702,0.5540653964753991,0.5776185589820549,0.3624529660670477,0.2828686997765515,0.34224431541720923
0.63375,0.614,0.68425,0.5972500000000001,0.7384999999999999,0.5507500000000001,0.90975,0.8440000000000001,0.84025,0.77925,0.78475,0.77925,0.47862851434280007,0.5055551591265877,0.5496003996003996,0.5568640664548272,0.5593698060620776,0.17906295578300624,0.32461101106467855,0.05012585180015937
0.6375,0.618,0.6872499999999999,0.60075,0.7432500000000001,0.5589999999999999,0.9157500000000001,0.85175,0.843,0.78475,0.7895,0.78475,0.47440773512202083,0.4993399457685172,0.5316076780362494,0.5515556981094868,0.5337977997812291,0.17906295578300624,0.32461101106467855,0.05012585180015937
0.64125,0.622,0.69025,0.60425,0.748,0.56725,0.92175,0.8595,0.84575,0.79025,0.79425,0.79025,0.46980876266590554,0.49527258455829887,0.507460396746111,0.5386153131943329,0.5060327773466268,0.17906295578300624,0.32461101106467855,0.05012585180015937
0.645,0.626,0.69325,0.60775,0.75275,0.5755,0.9277500000000001,0.86725,0.8484999999999999,0.7957500000000001,0.799,0.7957500000000001,0.4690702154987869,0.48678107606679033,0.500492364778079,0.5132412327736993,0.48747526038189265,0.168038990449674,0.31900657586290837,0.03011651271310965
0.64875,0.63,0.69625,0.61125,0.7575,0.58375,0.93375,0.875,0.85125,0.80125,0.80375,0.80125,0.4786320822035108,0.4851148851148851,0.49993577850720705,0.4883975932622037,0.46986382714685543,0.16585149038116906,0.3047108232652932,0.00914477346659648
0.64875,0.63,0.69625,0.61125,0.7575,0.58375,0.93375,0.875,0.85125,0.80125,0.80375,0.80125,0.4779185100613672,0.489453403739118,0.4981054659626088,0.4742577779313255,0.46250890644082576,0.15605684050660282,0.2988161246741542,0.003877520807841114
0.64875,0.63,0.69625,0.61125,0.7575,0.58375,0.93375,0.875,0.85125,0.80125,0.80375,0.80125,0.47634151562722993,0.4926287997716569,0.498976023976024,0.46949172593529415,0.4634193646548683,0.16239445657630142,0.292629140398227,0.0015116970121570106
0.649,0.631,0.69675,0.613,0.7595000000000001,0.58575,0.9355,0.87625,0.85125,0.80325,0.804,0.8029999999999999,0.4769016697588126,0.4950513771942343,0.4973704866562009,0.4715303608096158,0.47084157958377887,0.15795912902289644,0.2929232929579005,0.0019416545720296133
0.64925,0.632,0.6972499999999999,0.61475,0.7615000000000001,0.58775,0.9372499999999999,0.8775,0.85125,0.80525,0.80425,0.80475,0.47732981304409877,0.49797345511631225,0.4967853574996432,0.4752236549590341,0.4803776414677327,0.15858786354089513,0.29233452157695133,0.0028015418076501562
0.6495000000000001,0.633,0.6977500000000001,0.6164999999999999,0.7635,0.58975,0.9390000000000001,0.87875,0.85125,0.8072499999999999,0.8045,0.8065000000000001,0.47958113315256173,0.49961110318253177,0.4949978592835736,0.48247169565101794,0.4898345337195908,0.15858786354089513,0.29233452157695133,0.0028015418076501562
0.6497499999999999,0.634,0.69825,0.6182500000000001,0.7655,0.59175,0.94075,0.88,0.85125,0.80925,0.80475,0.80825,0.4813721992293421,0.5008134722420436,0.4950371057513915,0.4898464090668935,0.4979890744551212,0.15921659805889382,0.2924828421352989,0.001616244796999163
0.65,0.635,0.69875,0.62,0.7675,0.59375,0.9425,0.88125,0.85125,0.81125,0.805,0.81,0.4835592978450121,0.5015448836877409,0.49620736406450694,0.49642546087141304,0.5042435279231828,0.15731430954260023,0.29263038559097615,0.0015083869625302322
0.65,0.635,0.69875,0.62,0.7675,0.59375,0.9425,0.88125,0.85125,0.81125,0.805,0.81,0.48578207506778937,0.500809904381333,0.49750606536320824,0.5016309080232817,0.5082574621147388,0.15731430954260023,0.29263038559097615,0.0015083869625302322
0.65,0.635,0.69875,0.62,0.7675,0.59375,0.9425,0.88125,0.85125,0.81125,0.805,0.81,0.48781932353360924,0.49930426716141,0.49823034108748393,0.5053598290504226,0.5103911017177157,0.15856976649034715,0.2929254706738539,0.002374944624848836
0.65,0.635,0.69875,0.62,0.7675,0.59375,0.9425,0.88125,0.85125,0.81125,0.805,0.81,0.48893963179677463,0.49748822605965465,0.4986905951191665,0.5078339008172172,0.5115351125458715,0.16015467352983442,0.2923366992929048,0.002479916112365633
0.6505,0.636,0.6992499999999999,0.62,0.7675,0.595,0.9415,0.8815000000000001,0.85225,0.8122499999999999,0.80525,0.81,0.48901812473241046,0.4958719851576994,0.4993863279577565,0.5093460535720187,0.5123545251613937,0.1579390198840981,0.2923359221902346,0.002587687574058187
0.6509999999999999,0.637,0.69975,0.62,0.7675,0.59625,0.9405,0.8817499999999999,0.8532500000000001,0.81325,0.8055,0.81,0.4883901812473241,0.4943592122163551,0.500481661195947,0.5099635819091811,0.5137518809420354,0.15825640527547302,0.29189469426496273,0.0011849637613563324
0.6515000000000001,0.638,0.70025,0.62,0.7675,0.5975,0.9395,0.882,0.85425,0.8142499999999999,0.8057500000000001,0.81,0.4877479663193949,0.4916868845440274,0.5015627229912945,0.5093302195279663,0.515814267068172,0.15920453335852855,0.29351501732899643,0.0019407609198394367
0.652,0.639,0.70075,0.62,0.7675,0.59875,0.9384999999999999,0.88225,0.8552500000000001,0.81525,0.8059999999999999,0.81,0.4879334950763522,0.48771585557299846,0.5020301127443985,0.5064602962883906,0.518003325794376,0.15635612493286125,0.2914530000780888,0.0011891987478009482
0.6525,0.64,0.70125,0.62,0.7675,0.6,0.9375,0.8825,0.85625,0.81625,0.80625,0.81,0.48819394890823464,0.48391965177679463,0.5024368488654203,0.503515161246698,0.5197767404617775,0.15856574622841493,0.2926314735347144,0.0030184156879121214
0.6525,0.64,0.70125,0.62,0.7675,0.6,0.9375,0.8825,0.85625,0.81625,0.80625,0.81,0.48873983159697443,0.4798344512630227,0.5020372484658199,0.49607315336029284,0.5216134910577392,0.15856574622841493,0.2926314735347144,0.0030184156879121214
0.6525,0.64,0.70125,0.62,0.7675,0.6,0.9375,0.8825,0.85625,0.81625,0.80625,0.81,0.4891073212501784,0.47700870558013414,0.5019694591123163,0.4865806347260097,0.5237352551895892,0.15825238109897222,0.2914533109191568,0.0023754043728553484
0.6525,0.64,0.70125,0.62,0.7675,0.6,0.9375,0.8825,0.85625,0.81625,0.80625,0.81,0.4886292279149422,0.47676609105180534,0.5021799628942486,0.47749584331423967,0.5257540979731868,0.15888513979347174,0.2923368547134388,0.0028044254341998863
0.65275,0.6405,0.7015,0.62,0.76725,0.60025,0.9377500000000001,0.88325,0.85575,0.816,0.8059999999999999,0.81025,0.4874589696018267,0.48021264449835876,0.5034037391180248,0.47128889197833496,0.5278877373594713,0.1579390198840981,0.2926314735347144,0.00226215810132191
0.653,0.6409999999999999,0.70175,0.62,0.767,0.6004999999999999,0.938,0.884,0.8552500000000001,0.81575,0.8057500000000001,0.8105,0.4868274582560297,0.483851862423291,0.5049058084772371,0.46923442281231226,0.5295621888491163,0.1579390198840981,0.2926314735347144,0.00226215810132191
0.65325,0.6415000000000001,0.7020000000000001,0.62,0.7667499999999999,0.60075,0.93825,0.8847499999999999,0.8547499999999999,0.8155,0.8055,0.8107500000000001,0.48644212929927216,0.4872948480091337,0.5075032110746397,0.4738698435734388,0.5303776432941425,0.15887709535503866,0.2924843981691161,0.00205199545379408
0.6535,0.642,0.7022499999999999,0.62,0.7665000000000001,0.601,0.9384999999999999,0.8855,0.85425,0.81525,0.80525,0.8109999999999999,0.48737334094476953,0.4889753104038818,0.5096617668046239,0.48097141920315817,0.5296809443652453,0.15855971387823228,0.2923371673829837,0.001620817793442651
0.65375,0.6425,0.7025,0.62,0.76625,0.60125,0.93875,0.88625,0.85375,0.815,0.805,0.81125,0.5070251177394035,0.47660910518053373,0.5159733124018838,0.48453804112398235,0.5148206795966012,0.15855971387823228,0.2923371673829837,0.001620817793442651
0.65375,0.6425,0.7025,0.62,0.76625,0.60125,0.93875,0.88625,0.85375,0.815,0.805,0.81125,0.5049664621093193,0.4772834308548594,0.5107678036249464,0.47897632791902434,0.49194046402408115,0.15729621249205228,0.2920433256643783,0.0025839919073904452
0.65375,0.6425,0.7025,0.62,0.76625,0.60125,0.93875,0.88625,0.85375,0.815,0.805,0.81125,0.49561153132581703,0.492678749821607,0.5325067789353504,0.4711186762214652,0.4650423564609824,0.15856373414016453,0.2930741002447926,0.0021586331877841845
0.65375,0.6425,0.7025,0.62,0.76625,0.60125,0.93875,0.88625,0.85375,0.815,0.805,0.81125,0.49919366347937777,0.5008170401027544,0.5425574425574425,0.4778758612382661,0.43179083175676813,0.15856373414016453,0.2930741002447926,0.0021586331877841845
0.65375,0.6425,0.7025,0.62,0.76625,0.60125,0.93875,0.88625,0.85375,0.815,0.805,0.81125,0.5024190095618667,0.5010418153275296,0.5592764378478664,0.4746021693181464,0.4014448563030816,0.1591985010083459,0.2926322506373846,0.002262384574822161
0.653,0.63975,0.7025,0.61875,0.7647499999999999,0.598,0.93975,0.8875,0.8547499999999999,0.816,0.8059999999999999,0.813,0.4906985871271586,0.5276865991151706,0.5660232624518339,0.4743646582858885,0.386006647131074,0.1588811156169709,0.29174870684310267,0.0014027312938084749
0.65225,0.637,0.7025,0.6175,0.76325,0.59475,0.94075,0.88875,0.85575,0.8170000000000001,0.807,0.81475,0.4969494790923362,0.52639146567718,0.57211716854574,0.485658301009884,0.3797838612558194,0.15919246865816322,0.29277917241092577,0.0023729519300868737
0.6515000000000001,0.63425,0.7025,0.61625,0.7617499999999999,0.5915,0.94175,0.89,0.85675,0.818,0.8079999999999999,0.8165,0.5099578992436136,0.5101826744683887,0.5509882974168688,0.49509540005659863,0.37803815526778284,0.15919246865816322,0.29277917241092577,0.0023729519300868737
0.65075,0.6315,0.7025,0.615,0.7602500000000001,0.58825,0.9427500000000001,0.89125,0.85775,0.8190000000000001,0.809,0.81825,0.5111103182531754,0.5102433281004709,0.5794812330526616,0.47896445136443383,0.381604777188607,0.40284747362669027,0.34991590953721113,0.21482481876216708
0.65,0.62875,0.7025,0.61375,0.75875,0.585,0.94375,0.8925,0.85875,0.82,0.81,0.82,0.5076530612244898,0.5040852005137719,0.5696053946053946,0.47613807171504585,0.39686881100926824,0.40284747362669027,0.34991590953721113,0.21482481876216708
0.65,0.62875,0.7025,0.61375,0.75875,0.585,0.94375,0.8925,0.85875,0.82,0.81,0.82,0.5055551591265877,0.49357071499928645,0.57221706864564,0.47621724205913185,0.4179518621484645,0.4446616621151716,0.3565598320116861,0.22965207350866806
0.65,0.62875,0.7025,0.61375,0.75875,0.585,0.94375,0.8925,0.85875,0.82,0.81,0.82,0.5068253175396032,0.4934458398744113,0.5816397887826459,0.4765457988137346,0.44210672006265,0.5277956956280752,0.33994788742179805,0.28903667955560686
0.6417499999999999,0.62,0.6945,0.606,0.7495,0.57325,0.935,0.8797499999999999,0.85175,0.80675,0.80175,0.81125,0.5037569573283859,0.49663550734979306,0.5836056800342515,0.4780777441081234,0.4667168072076811,0.6380960326035335,0.5257754085406555,0.6448041955819598
0.6335000000000001,0.61125,0.6865000000000001,0.5982500000000001,0.7402500000000001,0.5615,0.92625,0.867,0.8447499999999999,0.7935,0.7935,0.8025,0.4997752247752248,0.49015627229912945,0.5488190381047524,0.4874633833474827,0.49133085227555945,0.6380960326035335,0.5257754085406555,0.6448041955819598
0.62525,0.6025,0.6785,0.5905,0.731,0.54975,0.9175,0.85425,0.8377500000000001,0.7802500000000001,0.78525,0.79375,0.5002176395033537,0.49907235621521334,0.5467282717282718,0.4932942759204521,0.5013102684609636,0.5747922640233079,0.6011805751079412,0.7281793673440872
0.617,0.59375,0.6705,0.58275,0.72175,0.5379999999999999,0.90875,0.8415,0.83075,0.767,0.777,0.785,0.4966212359069502,0.4979020979020979,0.538076209504781,0.49737946315546294,0.5042672790821296,0.5747922640233079,0.6011805751079412,0.7281793673440872
0.60875,0.585,0.6625,0.575,0.7125,0.52625,0.9,0.82875,0.82375,0.75375,0.76875,0.77625,0.49340659340659343,0.49992507492507493,0.5334772370486656,0.49887578180429987,0.5029332595705656,0.6253259504674292,0.4245739513126088,0.7464493559441865
0.60875,0.585,0.6625,0.575,0.7125,0.52625,0.9,0.82875,0.82375,0.75375,0.76875,0.77625,0.49469815898387326,0.4991044669616098,0.5364742400456686,0.49908162457819466,0.5013854802476024,0.6253259504674292,0.4245739513126088,0.7464493559441865
0.60925,0.58625,0.6629999999999999,0.57475,0.71375,0.525,0.9005,0.82875,0.823,0.75625,0.7695000000000001,0.77775,0.4963215356072499,0.5011488511488511,0.5428963893249608,0.5004433537287626,0.5057319296119058,0.7011541306887804,0.3139629107472844,0.730109307863359
0.60975,0.5875,0.6635,0.5745,0.715,0.52375,0.9009999999999999,0.82875,0.8222499999999999,0.75875,0.7702500000000001,0.77925,0.4969601826744684,0.49975024975024973,0.5493363779078064,0.5020663447919302,0.5140646035132833,0.8130313146070185,0.17728726699666664,0.7114874977813758
0.61025,0.58875,0.664,0.5742499999999999,0.71625,0.5225,0.9015000000000001,0.82875,0.8215,0.76125,0.7709999999999999,0.78075,0.4976559155130584,0.49875124875124877,0.5547845012130727,0.5039585149445045,0.5250851091166788,0.8442109433862879,0.21501162835408186,0.7734627879256225
0.61075,0.59,0.6645,0.574,0.7175,0.52125,0.902,0.82875,0.82075,0.76375,0.7717499999999999,0.7822499999999999,0.4985229056657628,0.4969494790923362,0.5606928785500214,0.5049679362743911,0.5356543440157198,0.8553253978869285,0.21913830683345267,0.771662044757388
0.61125,0.59125,0.665,0.57375,0.71875,0.52,0.9025,0.82875,0.82,0.76625,0.7725,0.78375,0.49856571999429145,0.4972206365063508,0.5671649778792636,0.5073667963319372,0.5498495781293078,0.8553253978869285,0.21913830683345267,0.771662044757388
0.61125,0.59125,0.665,0.57375,0.71875,0.52,0.9025,0.82875,0.82,0.76625,0.7725,0.78375,0.49877265591551306,0.49514770943342373,0.5679891537034394,0.5101496322673129,0.5621803517912377,0.8467660997358795,0.22709517809603336,0.7632061193460776
0.61125,0.59125,0.665,0.57375,0.71875,0.52,0.9025,0.82875,0.82,0.76625,0.7725,0.78375,0.49856928785500215,0.49685314685314685,0.5684315684315684,0.5128730905684487,0.57278521254645,0.8385141265349533,0.23460833287632074,0.7555951271183651
0.617,0.59675,0.6705,0.57975,0.7247499999999999,0.5295000000000001,0.9109999999999999,0.83875,0.825,0.77425,0.77825,0.78925,0.49887255601541314,0.5007242757242757,0.5706650492364778,0.515038398166662,0.5831525632599994,0.8194912570302912,0.24153162833192068,0.7448652404597963
0.62275,0.6022500000000001,0.6759999999999999,0.58575,0.73075,0.539,0.9195,0.84875,0.83,0.7822499999999999,0.784,0.79475,0.49713500784929354,0.5017982017982018,0.5725881261595547,0.5175322623956536,0.5944937086114495,0.7709858729796403,0.26023794507094933,0.7159042220688858
0.6285000000000001,0.60775,0.6815000000000001,0.59175,0.73675,0.5485,0.9279999999999999,0.85875,0.835,0.79025,0.78975,0.80025,0.4982267732267732,0.5023262451833881,0.5754673897531041,0.5176589347480722,0.6025176193193629,0.7421502252333153,0.2646556640423592,0.695201679562299
0.63425,0.6132500000000001,0.687,0.59775,0.74275,0.5579999999999999,0.9365000000000001,0.86875,0.84,0.79825,0.7955,0.8057500000000001,0.4952083630655059,0.5036071071785357,0.5848651348651348,0.5172749587773742,0.6055854686668024,0.702545654125819,0.2680382511729711,0.671475477112063
0.64,0.61875,0.6925,0.60375,0.74875,0.5675,0.945,0.87875,0.845,0.80625,0.80125,0.81125,0.4909197944912231,0.5079598972456115,0.586053232481804,0.5189810788504214,0.6041406103825306,0.41255499694835895,0.29708084892619246,0.4038311858259113
0.64,0.61875,0.6925,0.60375,0.74875,0.5675,0.945,0.87875,0.845,0.80625,0.80125,0.81125,0.4878121878121878,0.5108462965605822,0.5778614242899958,0.528394427264443,0.592276940958232,0.41255499694835895,0.29708084892619246,0.4038311858259113
0.64,0.61875,0.6925,0.60375,0.74875,0.5675,0.945,0.87875,0.845,0.80625,0.80125,0.81125,0.48458684172969885,0.5141429998572856,0.5603146853146853,0.5382234194896185,0.5762093284422765,0.37155855400722015,0.29955858319306733,0.3523997346998285
0.64,0.61875,0.6925,0.60375,0.74875,0.5675,0.945,0.87875,0.845,0.80625,0.80125,0.81125,0.4775403168260311,0.5126266590552305,0.5447588126159555,0.545127069630596,0.5515240288760066,0.311449069474166,0.305992580066456,0.24813404742590678
0.64,0.61875,0.6925,0.60375,0.74875,0.5675,0.945,0.87875,0.845,0.80625,0.80125,0.81125,0.48043385186242327,0.5106964464107321,0.5254495504495504,0.5487016086353586,0.5232919007178803,0.2799218661506284,0.3077371115643389,0.1999174767290521
0.642,0.62175,0.69375,0.607,0.7515000000000001,0.57225,0.94475,0.8802500000000001,0.8447499999999999,0.8065000000000001,0.80175,0.81125,0.4838482945625803,0.5053446553446553,0.5095154845154846,0.5481513746449014,0.496195866799269,0.2559977884566513,0.304623632345698,0.1539509726249279
0.644,0.62475,0.695,0.61025,0.75425,0.5770000000000001,0.9445,0.8817499999999999,0.8445,0.80675,0.8022499999999999,0.81125,0.4832917082917083,0.5008491508491508,0.5039496218067646,0.536731059197014,0.47612223804246673,0.2559977884566513,0.304623632345698,0.1539509726249279
0.6459999999999999,0.62775,0.69625,0.6135,0.757,0.58175,0.9442499999999999,0.88325,0.84425,0.807,0.8027500000000001,0.81125,0.48430498073355216,0.49938989581846727,0.5083844726701869,0.5231216853634398,0.46078299328645944,0.20722563047180353,0.30222329019086647,0.05159439166845641
0.648,0.63075,0.6975,0.61675,0.7597499999999999,0.5865,0.9440000000000001,0.8847499999999999,0.8440000000000001,0.8072499999999999,0.80325,0.81125,0.48845797060082774,0.5011738261738262,0.507460396746111,0.5137677145836584,0.4552964917597938,0.20722563047180353,0.30222329019086647,0.05159439166845641
0.65,0.63375,0.69875,0.62,0.7625,0.59125,0.94375,0.88625,0.84375,0.8075,0.80375,0.81125,0.485710717853575,0.5034750963322392,0.5045561581275867,0.5075726387498368,0.45584276683680863,0.19206562201132477,0.2942592622698125,0.0339814149343933
0.65,0.63375,0.69875,0.62,0.7625,0.59125,0.94375,0.88625,0.84375,0.8075,0.80375,0.81125,0.4837341230198373,0.5043849008134722,0.5060368203225346,0.5079209884619342,0.46576676410020046,0.15606890520696812,0.2923335890537472,0.0009742291492227638
0.65,0.63375,0.69875,0.62,0.7625,0.59125,0.94375,0.88625,0.84375,0.8075,0.80375,0.81125,0.48623876123876125,0.5031575567289853,0.505198373055516,0.5122832719941144,0.47875860968948053,0.15668959528653373,0.2932188443023804,0.0012974115947837863
0.6502500000000001,0.6345000000000001,0.6992499999999999,0.61975,0.763,0.59275,0.94475,0.8865000000000001,0.8452500000000001,0.8085,0.80425,0.81175,0.49105180533751963,0.5007563864706722,0.5033145426002569,0.5174649680489484,0.48975932241277154,0.15731430954260023,0.2926297620803631,0.0018352174677169007
0.6505,0.63525,0.69975,0.6195,0.7635,0.59425,0.94575,0.8867499999999999,0.84675,0.8095,0.80475,0.8122499999999999,0.49471956614813756,0.4975631511345797,0.5032182103610675,0.5193175529366113,0.49711424291371703,0.15731430954260023,0.2926297620803631,0.0018352174677169007
0.65075,0.636,0.70025,0.61925,0.764,0.59575,0.94675,0.887,0.8482500000000001,0.8105,0.80525,0.8127500000000001,0.49791280148423006,0.49486941629798775,0.5032931354359926,0.5198321598636093,0.5041841503315073,0.157633703107657,0.2926299175008972,0.0016210442669429021
0.6509999999999999,0.6367499999999999,0.70075,0.619,0.7645000000000001,0.5972500000000001,0.9477500000000001,0.88725,0.8497499999999999,0.8115000000000001,0.8057500000000001,0.81325,0.5017018695590124,0.49389895818467244,0.503111174539746,0.5150859003297751,0.5037012115235702,0.157633703107657,0.2926299175008972,0.0016210442669429021
0.65125,0.6375,0.70125,0.61875,0.765,0.59875,0.94875,0.8875,0.85125,0.8125,0.80625,0.81375,0.502554588268874,0.49405237619523334,0.5026544883687741,0.5094806431012439,0.5010687990686036,0.15762767075747436,0.2921879124729551,0.0014026190772092537
0.65125,0.6375,0.70125,0.61875,0.765,0.59875,0.94875,0.8875,0.85125,0.8125,0.80625,0.81375,0.501213072641644,0.4946660482374768,0.5025581561295847,0.5045127068578089,0.49872535819619673,0.15826243762565567,0.29189360632122446,0.0010811076388257508
0.65125,0.6375,0.70125,0.61875,0.765,0.59875,0.94875,0.8875,0.85125,0.8125,0.80625,0.81375,0.49926502069359213,0.49531539888682746,0.5022905665762809,0.5023909429736076,0.4978901115559698,0.15826243762565567,0.29189360632122446,0.0010811076388257508
0.6515000000000001,0.63825,0.7015,0.61975,0.76625,0.5995,0.9490000000000001,0.8875,0.8515,0.813,0.80625,0.8140000000000001,0.49750606536320824,0.4950585129156558,0.5016768945340374,0.5012588077404033,0.49714986928453353,0.15731631771628204,0.29189360632122446,0.0011865320733430499
0.6517499999999999,0.639,0.70175,0.62075,0.7675,0.60025,0.9492499999999999,0.8875,0.85175,0.8134999999999999,0.80625,0.8142499999999999,0.49555801341515626,0.4938846867418296,0.5005672898530041,0.49963581670819174,0.4960296095843685,0.1588911721436544,0.29218838056303414,0.002050203388709515
0.652,0.63975,0.7020000000000001,0.62175,0.76875,0.601,0.9495,0.8875,0.852,0.8140000000000001,0.80625,0.8145,0.4935457399743114,0.49253960325388896,0.4993328100470958,0.49679360307666365,0.4948262211219726,0.1588911721436544,0.29218838056303414,0.002050203388709515
0.65225,0.6405,0.7022499999999999,0.62275,0.77,0.60175,0.94975,0.8875,0.85225,0.8145,0.80625,0.81475,0.4905094905094905,0.49106250891965175,0.4978057656629085,0.492577784606748,0.4942641120009055,0.1563601491093621,0.29277761637710853,0.0017277935374316335
0.6525,0.64125,0.7025,0.62375,0.77125,0.6025,0.95,0.8875,0.8525,0.815,0.80625,0.815,0.487733694876552,0.48991365777080065,0.49637148565719996,0.48857968445924443,0.49405431070051953,0.1588911721436544,0.29263023017044215,0.0008634618443812489
0.6525,0.64125,0.7025,0.62375,0.77125,0.6025,0.95,0.8875,0.8525,0.815,0.80625,0.815,0.4838304552590267,0.48889324960753533,0.4950121307264164,0.4825944097091161,0.4958435594119732,0.1588911721436544,0.29263023017044215,0.0008634618443812489
0.6525,0.64125,0.7025,0.62375,0.77125,0.6025,0.95,0.8875,0.8525,0.815,0.80625,0.815,0.47928856857428287,0.48841872413300985,0.4939203653489368,0.47648642117949447,0.4995883143593421,0.15793701171041621,0.2923357667697005,0.0007596057218506717
0.6525,0.64125,0.7025,0.62375,0.77125,0.6025,0.95,0.8875,0.8525,0.815,0.80625,0.815,0.4740331097473955,0.48759811616954474,0.4931104609676038,0.4711028407534324,0.5051579447720629,0.15793701171041621,0.2923357667697005,0.0007596057218506717
0.65275,0.6409999999999999,0.7027500000000001,0.6232500000000001,0.7709999999999999,0.60275,0.94975,0.88775,0.853,0.815,0.80625,0.815,0.4692985585842729,0.4874268588554303,0.493146139574711,0.467615389424343,0.5118201254626377,0.1588931842319048,0.2923363884518367,0.0012930575907339334
0.653,0.64075,0.703,0.62275,0.77075,0.603,0.9495,0.888,0.8534999999999999,0.815,0.80625,0.815,0.46374339945768517,0.48820108462965606,0.492867846439275,0.464828594946998,0.5189454524679964,0.1569908918010426,0.29174715263776224,0.0014074165068511842
0.65325,0.6405,0.70325,0.62225,0.7705,0.6032500000000001,0.9492499999999999,0.88825,0.8540000000000001,0.815,0.80625,0.815,0.45881975167689454,0.4889895818467247,0.49181532752961327,0.4662615774815379,0.5245784190569265,0.1569908918010426,0.29174715263776224,0.0014074165068511842
0.6535,0.6402500000000001,0.7034999999999999,0.62175,0.7702500000000001,0.6035,0.9490000000000001,0.8885,0.8545,0.815,0.80625,0.815,0.45426002568859714,0.4883045525902669,0.4907271300128443,0.4699034110806545,0.528790278984873,0.1582543931872226,0.291599764602619,0.002695667146534763
0.65375,0.64,0.70375,0.62125,0.77,0.60375,0.94875,0.88875,0.855,0.815,0.80625,0.815,0.4521978021978022,0.4855037819323534,0.4867311260168403,0.45380809013298307,0.5101694253486321,0.15761359396885866,0.2923366992929048,0.0015092710933119896
0.65375,0.64,0.70375,0.62125,0.77,0.60375,0.94875,0.88875,0.855,0.815,0.80625,0.815,0.4549557585271871,0.4946053946053946,0.5259062366205224,0.4678647762063329,0.47291980024926544,0.1576196263190413,0.29277854890031274,0.0023713842982007608
0.65325,0.6375,0.70375,0.619,0.76925,0.6004999999999999,0.9484999999999999,0.8897499999999999,0.8545,0.8155,0.8059999999999999,0.81575,0.4653774796631939,0.4878906807478236,0.5477772227772227,0.4691275427982664,0.4424154846027044,0.1607813959595827,0.2930730123010543,0.0014029482459003066
0.65275,0.635,0.70375,0.61675,0.7685,0.5972500000000001,0.94825,0.89075,0.8540000000000001,0.816,0.8057500000000001,0.8165,0.47807549593263876,0.501302269159412,0.5706971599828743,0.46902857986815893,0.41567571624188493,0.2034391465751956,0.3134152069568586,0.019474967722153416
0.65225,0.6325,0.70375,0.6145,0.76775,0.594,0.948,0.8917499999999999,0.8534999999999999,0.8165,0.8055,0.8172499999999999,0.48671685457399744,0.5062722991294419,0.578781932353361,0.46801915872400884,0.39675401490187917,0.30584676596664057,0.35209559476020036,0.23326551805401038
0.6517499999999999,0.63,0.70375,0.61225,0.767,0.59075,0.9477500000000001,0.89275,0.853,0.8170000000000001,0.80525,0.818,0.4955437419723134,0.5123983159697445,0.5985942628799772,0.48563850780474055,0.3966629683127637,0.30584676596664057,0.35209559476020036,0.23326551805401038
0.65125,0.6275,0.70375,0.61,0.76625,0.5875,0.9475,0.89375,0.8525,0.8175,0.805,0.81875,0.5015520194091623,0.5020586556300842,0.5750891965177679,0.4750336465542307,0.41648721078287365,0.3457465934093259,0.4020552548120478,0.25826894875348383
0.65125,0.6275,0.70375,0.61,0.76625,0.5875,0.9475,0.89375,0.8525,0.8175,0.805,0.81875,0.4993827600970458,0.5099115170543742,0.5684422720137006,0.4777729385279455,0.43096349958081975,0.3457465934093259,0.4020552548120478,0.25826894875348383
0.65125,0.6275,0.70375,0.61,0.76625,0.5875,0.9475,0.89375,0.8525,0.8175,0.805,0.81875,0.4963322391893821,0.4974133009847296,0.5597045811331526,0.48245982030371526,0.44841659212768503,0.43528259458482377,0.40664711609217785,0.3000715661701595
0.6459999999999999,0.62,0.6977500000000001,0.60425,0.7602500000000001,0.57625,0.9415,0.8852500000000001,0.85,0.81325,0.80125,0.81475,0.49813757670900527,0.49595761381475667,0.5644605394605394,0.48725754029498297,0.45916791881193253,0.44588460857085715,0.37630578961547684,0.3309118752681568
0.64075,0.6125,0.69175,0.5985,0.75425,0.565,0.9355,0.8767499999999999,0.8475,0.809,0.7975,0.8107500000000001,0.4980448123305266,0.4961217354074497,0.5591194519765949,0.49359908137293607,0.4741469394681788,0.483375758905667,0.33256454170001587,0.3751949936837153
0.6355,0.605,0.6857500000000001,0.59275,0.7482500000000001,0.55375,0.9295,0.8682500000000001,0.845,0.80475,0.79375,0.80675,0.4967853574996432,0.5007171400028543,0.5529755958327387,0.4970231967115528,0.48751484419186736,0.767047871791553,0.20913512859324024,0.8259764661361207
0.63025,0.5975,0.67975,0.5870000000000001,0.74225,0.5425,0.9235,0.8597499999999999,0.8425,0.8005,0.79,0.8027500000000001,0.4965249036677608,0.5011738261738262,0.5488261738261738,0.4987609848107925,0.4997466551713385,0.767047871791553,0.20913512859324024,0.8259764661361207
0.625,0.59,0.67375,0.58125,0.73625,0.53125,0.9175,0.85125,0.84,0.79625,0.78625,0.79875,0.49578278863993147,0.501023976023976,0.5481268731268731,0.49824637785283843,0.5070184471151373,0.7961787837022042,0.1973544422747758,0.8366210491364632
0.625,0.59,0.67375,0.58125,0.73625,0.53125,0.9175,0.85125,0.84,0.79625,0.78625,0.79875,0.49537605251890965,0.5001998001998001,0.5502212073640645,0.49797719884082214,0.515438208057588,0.7961787837022042,0.1973544422747758,0.8366210491364632
0.6275,0.5902499999999999,0.67475,0.58275,0.73875,0.53425,0.91925,0.85375,0.8390000000000001,0.79525,0.7872499999999999,0.8,0.4961253032681604,0.49963251034679607,0.5574496931639789,0.4993903886074735,0.5288536151610823,0.8370589169816773,0.1723092442007127,0.8405545184202746
0.63,0.5905,0.6757500000000001,0.5842499999999999,0.74125,0.53725,0.9209999999999999,0.85625,0.838,0.79425,0.78825,0.80125,0.4964606821749679,0.499418438704153,0.564125160553732,0.5014408992934392,0.544042437303451,0.8358115044723634,0.1644955609619025,0.8349940825534837
0.6325,0.59075,0.67675,0.58575,0.74375,0.54025,0.9227500000000001,0.85875,0.8370000000000001,0.79325,0.78925,0.8025,0.49683530754959326,0.5005244755244755,0.5717104324247182,0.5044414536131393,0.560881959436001,0.815884714107626,0.15977264543051808,0.8260949913485217
0.635,0.591,0.6777500000000001,0.58725,0.74625,0.54325,0.9245,0.86125,0.836,0.7922499999999999,0.79025,0.80375,0.497445411731126,0.5017411160268304,0.5768017696589125,0.5076043069153318,0.5781094167003403,0.748567573235863,0.161361858789068,0.7807061857783044
0.6375,0.59125,0.67875,0.58875,0.74875,0.54625,0.92625,0.86375,0.835,0.79125,0.79125,0.805,0.4974275724275724,0.5050556586270872,0.581297274154417,0.5111867628337741,0.593658463561592,0.748567573235863,0.161361858789068,0.7807061857783044
0.6375,0.59125,0.67875,0.58875,0.74875,0.54625,0.92625,0.86375,0.835,0.79125,0.79125,0.805,0.4979020979020979,0.5090338233195376,0.5847937776509204,0.5136806271865901,0.6000752158883217,0.6451716348857458,0.21596789433047847,0.6732285193843198
0.6375,0.59125,0.67875,0.58875,0.74875,0.54625,0.92625,0.86375,0.835,0.79125,0.79125,0.805,0.4932710146995861,0.5053589267874982,0.5781004709576139,0.5152284065714654,0.6010410936899327,0.6451716348857458,0.21596789433047847,0.6732285193843198
0.6375,0.59125,0.67875,0.58875,0.74875,0.54625,0.92625,0.86375,0.835,0.79125,0.79125,0.805,0.4820215498786927,0.5029898672755816,0.5710503781932353,0.515818225238668,0.5939513934384721,0.6120715853085177,0.2323054284254696,0.6356336429020691
0.6402500000000001,0.59925,0.6825,0.59425,0.7515000000000001,0.5555,0.92875,0.86725,0.83675,0.79475,0.7927500000000001,0.80675,0.46744327101469957,0.5067361210218353,0.5597545311831026,0.5210038798045151,0.5797046978458994,0.4862539963439182,0.2801280872184052,0.4972723844476162
0.643,0.6072500000000001,0.68625,0.59975,0.75425,0.56475,0.93125,0.87075,0.8384999999999999,0.79825,0.79425,0.8085,0.45318253175396034,0.5079135150563722,0.5478271728271729,0.5252394907366279,0.5647138018113943,0.4862539963439182,0.2801280872184052,0.4972723844476162
0.64575,0.61525,0.69,0.60525,0.757,0.574,0.93375,0.87425,0.84025,0.80175,0.7957500000000001,0.81025,0.44533323819038106,0.506018981018981,0.5287391180248323,0.5305676523180679,0.550439397291808,0.44083430620801417,0.2904188830419541,0.4434551900593362
0.6485,0.6232500000000001,0.69375,0.61075,0.7597499999999999,0.58325,0.93625,0.87775,0.8420000000000001,0.80525,0.7972499999999999,0.812,0.4535000713572142,0.5082488939631796,0.5229948622805766,0.5358126848896283,0.5305795273248535,0.44083430620801417,0.2904188830419541,0.4434551900593362
0.65125,0.63125,0.6975,0.61625,0.7625,0.5925,0.93875,0.88125,0.84375,0.80875,0.79875,0.81375,0.4666083916083916,0.5073569287855002,0.5164549735978308,0.5364975080687936,0.5102763048673803,0.20246085674122688,0.32034690243520403,0.09576225139480199
0.65125,0.63125,0.6975,0.61625,0.7625,0.5925,0.93875,0.88125,0.84375,0.80875,0.79875,0.81375,0.4820144141572713,0.5016661909519052,0.5161088911088911,0.5305241090993533,0.4944778717194362,0.20246085674122688,0.32034690243520403,0.09576225139480199
0.65125,0.63125,0.6975,0.61625,0.7625,0.5925,0.93875,0.88125,0.84375,0.80875,0.79875,0.81375,0.4995004995004995,0.49662480376766094,0.5145711431425717,0.522789171057463,0.4793088424107377,0.19114162724356842,0.3170959912379827,0.05998127802742185
0.65125,0.63125,0.6975,0.61625,0.7625,0.5925,0.93875,0.88125,0.84375,0.80875,0.79875,0.81375,0.5104538318824033,0.493563579277865,0.5162337662337663,0.5129799706753628,0.4658419750045904,0.16969829777960346,0.30736191908126437,0.019572213266838858
0.65125,0.6335000000000001,0.698,0.618,0.7635,0.59525,0.9377500000000001,0.8809999999999999,0.8427500000000001,0.8085,0.79875,0.81325,0.5101469958612815,0.4933066933066933,0.5160018552875696,0.503990182970697,0.4594173055939224,0.16781209422560736,0.311336855922062,0.009788010575052911
0.65125,0.63575,0.6984999999999999,0.61975,0.7645000000000001,0.598,0.93675,0.88075,0.84175,0.80825,0.79875,0.8127500000000001,0.5101041815327529,0.49451263022691594,0.5142821464250036,0.5001543819914224,0.4591481267212086,0.15735854808212918,0.297338521543812,0.0015107489519187276
0.65125,0.638,0.6990000000000001,0.6214999999999999,0.7655,0.60075,0.9357500000000001,0.8805,0.84075,0.8079999999999999,0.79875,0.8122499999999999,0.5096831739688883,0.4955009276437848,0.5109461966604824,0.4981790831075734,0.4598250330640843,0.15735854808212918,0.297338521543812,0.0015107489519187276
0.65125,0.6402500000000001,0.6995,0.6232500000000001,0.7665000000000001,0.6035,0.93475,0.8802500000000001,0.83975,0.8077500000000001,0.79875,0.81175,0.5054945054945055,0.4961217354074497,0.5074568288854003,0.49830179707280325,0.46085424704190464,0.15860797267969348,0.2914484892256479,0.0017230035888963133
0.65125,0.6425,0.7,0.625,0.7675,0.60625,0.93375,0.88,0.83875,0.8075,0.79875,0.81125,0.4988796917368346,0.49724917939203656,0.5042671614100186,0.4991053756133171,0.46218430773289465,0.1598775064160562,0.29277466155848497,0.0018344618759487993
0.65125,0.6425,0.7,0.625,0.7675,0.60625,0.93375,0.88,0.83875,0.8075,0.79875,0.81125,0.4918081918081918,0.49907235621521334,0.5007314114456971,0.5004789803278803,0.46574697123557407,0.1598775064160562,0.29277466155848497,0.0018344618759487993
0.65125,0.6425,0.7,0.625,0.7675,0.60625,0.93375,0.88,0.83875,0.8075,0.79875,0.81125,0.48491865277579566,0.5012344798059084,0.49745254745254747,0.5025730347278582,0.4705763590053854,0.15765381224645536,0.29174341888799166,0.0020506542954082134
0.65125,0.6425,0.7,0.625,0.7675,0.60625,0.93375,0.88,0.83875,0.8075,0.79875,0.81125,0.4786534893677751,0.503111174539746,0.49449479092336235,0.5057556807398965,0.4757818059096053,0.15734045103158123,0.293216666586427,0.002591600872918365
0.6517499999999999,0.6425,0.7005,0.62425,0.768,0.60625,0.934,0.8805,0.8392499999999999,0.80825,0.7995,0.81175,0.4740759240759241,0.5047060082774368,0.4928821178821179,0.508601852975306,0.4800055413396349,0.1582865670263863,0.2929222031856854,0.0024792346515630764
0.65225,0.6425,0.701,0.6235,0.7685,0.60625,0.93425,0.8809999999999999,0.83975,0.809,0.80025,0.8122499999999999,0.47049379192236335,0.5047488226059654,0.491590552304838,0.5129126754928429,0.4847399252166055,0.1582865670263863,0.2929222031856854,0.0024792346515630764
0.65275,0.6425,0.7015,0.62275,0.769,0.60625,0.9345,0.8815000000000001,0.84025,0.80975,0.8009999999999999,0.8127500000000001,0.4681889539032396,0.5028079063793349,0.49055587269872986,0.5170334895746203,0.4887380249926359,0.15859389589107778,0.29380667950317163,0.002586691906777808
0.65325,0.6425,0.7020000000000001,0.622,0.7695000000000001,0.60625,0.93475,0.882,0.84075,0.8105,0.80175,0.81325,0.4675288996717568,0.49971457114314255,0.489845868417297,0.5199311222365071,0.4919325465377135,0.15859389589107778,0.29380667950317163,0.002586691906777808
0.65375,0.6425,0.7025,0.62125,0.77,0.60625,0.935,0.8825,0.84125,0.81125,0.8025,0.81375,0.46783930355358927,0.49601469958612815,0.48995647209932924,0.5206396964198386,0.4945332908697498,0.15986142145375865,0.29336529798584254,0.0029108700196192098
0.65375,0.6425,0.7025,0.62125,0.77,0.60625,0.935,0.8825,0.84125,0.81125,0.8025,0.81375,0.4692700156985871,0.4919473383759098,0.49043813329527614,0.5207386593499461,0.4974150897661892,0.15922263040907647,0.2924811306809476,0.0031318687100283732
0.65375,0.6425,0.7025,0.62125,0.77,0.60625,0.935,0.8825,0.84125,0.81125,0.8025,0.81375,0.472306265163408,0.4884865134865135,0.491426430712145,0.5175401794795921,0.4999564563749866,0.15922263040907647,0.2924811306809476,0.0031318687100283732
0.65375,0.6425,0.7025,0.62125,0.77,0.60625,0.935,0.8825,0.84125,0.81125,0.8025,0.81375,0.4770372484658199,0.4862316255173398,0.492564578278864,0.512105138441316,0.5025809517460148,0.16048613179525656,0.29351299503357703,0.0028073423856790807
0.65375,0.6425,0.7025,0.62125,0.77,0.60625,0.935,0.8825,0.84125,0.81125,0.8025,0.81375,0.48239260739260736,0.48498644212929926,0.49379192236335095,0.5053044101438883,0.5051064842178916,0.1598513649270752,0.29351330587464514,0.002262384574822161
0.654,0.64325,0.7027500000000001,0.622,0.7702500000000001,0.6065,0.93475,0.88275,0.8415,0.81125,0.8025,0.8140000000000001,0.48758027686599115,0.4852718709861567,0.4947231340088483,0.4972329984182375,0.5076597263635978,0.1598513649270752,0.29351330587464514,0.002262384574822161
0.65425,0.644,0.703,0.62275,0.7705,0.60675,0.9345,0.883,0.84175,0.81125,0.8025,0.8142499999999999,0.49120165548736977,0.4869987155701441,0.4948051948051948,0.489026997008581,0.5104148525980576,0.15762968284572476,0.29321822079176735,0.002375056161347457
0.6545000000000001,0.6447499999999999,0.70325,0.6235,0.77075,0.607,0.93425,0.88325,0.8420000000000001,0.81125,0.8025,0.8145,0.4926858855430284,0.4898494362780077,0.4943235336092479,0.4824281527418643,0.5133520705558119,0.1579530966727138,0.29321822079176735,0.0020527605669706005
0.6547499999999999,0.6455,0.7034999999999999,0.62425,0.7709999999999999,0.6072500000000001,0.934,0.8835,0.8422499999999999,0.81125,0.8025,0.81475,0.49256101041815326,0.4928321678321678,0.49382046524903667,0.4777135615128274,0.515719262432385,0.15952995927376795,0.29218760163188706,0.0016153531851107906
0.655,0.64625,0.70375,0.625,0.77125,0.6075,0.93375,0.88375,0.8425,0.81125,0.8025,0.815,0.4895283288140431,0.49702797202797205,0.4943271014699586,0.47620932571813984,0.5188860743384588,0.15952995927376795,0.29218760163188706,0.0016153531851107906
0.655,0.64625,0.70375,0.625,0.77125,0.6075,0.93375,0.88375,0.8425,0.81125,0.8025,0.815,0.4857499643213929,0.5005173398030541,0.4942200656486371,0.4787506920792885,0.521071174646518,0.15826243762565567,0.2926299175008972,0.0018362539410333597
0.655,0.64625,0.70375,0.625,0.77125,0.6075,0.93375,0.88375,0.8425,0.81125,0.8025,0.815,0.48132581704010274,0.5023405166262309,0.4939845868417297,0.48394030505167185,0.522013301196314,0.15826645788758792,0.29248237587369674,0.0019416545720296133
0.655,0.64625,0.7034999999999999,0.625,0.7709999999999999,0.607,0.9335,0.8835,0.8427500000000001,0.8115000000000001,0.8025,0.81475,0.4762594548308834,0.4985407449693164,0.49637505351791067,0.49001266688930745,0.5242261109266844,0.1592125777969616,0.29248237587369674,0.002265396740385542
0.655,0.64625,0.70325,0.625,0.77075,0.6065,0.93325,0.88325,0.843,0.81175,0.8025,0.8145,0.47445054945054943,0.496118167546739,0.4995397459683174,0.47793127852347483,0.49943789174570363,0.16016070588001707,0.2929245363221728,0.0021569601403048618
0.655,0.64625,0.703,0.625,0.7705,0.606,0.9329999999999999,0.883,0.84325,0.812,0.8025,0.8142499999999999,0.47480733552162124,0.49213643499357784,0.5015199086627659,0.4643575301126866,0.473454201062441,0.16110682187482217,0.29321915514344843,0.001186186582237562
0.655,0.64625,0.7027500000000001,0.625,0.7702500000000001,0.6054999999999999,0.9327500000000001,0.88275,0.8434999999999999,0.8122499999999999,0.8025,0.8140000000000001,0.46200228343085487,0.5115063507920651,0.5356821749678893,0.459417303415387,0.43168395199037113,0.16110682187482217,0.29321915514344843,0.001186186582237562
0.655,0.64625,0.7025,0.625,0.77,0.605,0.9325,0.8825,0.84375,0.8125,0.8025,0.81375,0.4678642785785643,0.511823890395319,0.5468281718281718,0.46111946483424926,0.39592272926076166,0.15731832980453242,0.29321915514344843,0.0030214203723688926
0.655,0.64625,0.7025,0.625,0.77,0.605,0.9325,0.8825,0.84375,0.8125,0.8025,0.81375,0.4822427572427572,0.5292136434993577,0.5591123162551734,0.44957247697203123,0.35678093472081107,0.15826243762565567,0.29233514508756436,0.002368691099819409
0.655,0.64625,0.7025,0.625,0.77,0.605,0.9325,0.8825,0.84375,0.8125,0.8025,0.81375,0.4885079206507778,0.5323141144569716,0.5630797773654916,0.46052173001179125,0.34462037700148757,0.15920654544677895,0.29336700761171697,0.0028009793644528363
0.6505,0.63975,0.69875,0.61975,0.76425,0.59675,0.929,0.87625,0.8427500000000001,0.8105,0.7985,0.8105,0.48927144284287144,0.5136256600542315,0.5694876552019409,0.470904915388515,0.34558625282190836,0.25988079387075014,0.22798928317272243,0.1048169577785603
0.6459999999999999,0.63325,0.695,0.6145,0.7585,0.5885,0.9255,0.87,0.84175,0.8085,0.7945,0.8072499999999999,0.4857463964606822,0.47499286427857856,0.5724382760097045,0.47693769223984417,0.3697688196631073,0.29421217099499475,0.18131740738267757,0.1885647151740314
0.6415000000000001,0.6267499999999999,0.69125,0.60925,0.75275,0.5802499999999999,0.922,0.86375,0.84075,0.8065000000000001,0.7905,0.804,0.5121664050235479,0.4854788069073783,0.5681283002711575,0.476114321144265,0.39816324618460397,0.3732342868669137,0.21256203251777525,0.20179198564881093
0.637,0.62025,0.6875,0.604,0.747,0.5720000000000001,0.9185,0.8575,0.83975,0.8045,0.7865000000000001,0.8007500000000001,0.5081525617239903,0.4753175396032539,0.5695804195804196,0.483002136869717,0.43669542947133044,0.4821186108642932,0.2927347568792515,0.23473231550456677
0.6325,0.61375,0.68375,0.59875,0.74125,0.56375,0.915,0.85125,0.83875,0.8025,0.7825,0.7975,0.5006814613957471,0.47654845154845155,0.5694234337091479,0.48745546612424184,0.4725912413896481,0.4821186108642932,0.2927347568792515,0.23473231550456677
0.6325,0.61375,0.68375,0.59875,0.74125,0.56375,0.915,0.85125,0.83875,0.8025,0.7825,0.7975,0.4995219066647638,0.4963821892393321,0.5668046239474811,0.4927955028362918,0.4925302816852105,0.48675066897628305,0.2604713336872448,0.24589889747966576
0.6325,0.61375,0.68375,0.59875,0.74125,0.56375,0.915,0.85125,0.83875,0.8025,0.7825,0.7975,0.5193806193806194,0.5136363636363637,0.5377229912944199,0.4933536533999117,0.5038555932402571,0.48675066897628305,0.2604713336872448,0.24589889747966576
0.6325,0.61375,0.68375,0.59875,0.74125,0.56375,0.915,0.85125,0.83875,0.8025,0.7825,0.7975,0.4934886542029399,0.5018981018981019,0.5404060225488797,0.49262924515704976,0.5061990341745761,0.4836726985053458,0.26909289103350614,0.4390354699286772
0.6295000000000001,0.6125,0.68125,0.598,0.7384999999999999,0.563,0.9127500000000001,0.84775,0.83375,0.7875,0.77625,0.7659999999999999,0.4906629085200514,0.4989403453689168,0.5345154845154845,0.4972646661658251,0.5008431636196885,0.5975326035805024,0.5008115630595384,0.7428978216366857
0.6265,0.61125,0.67875,0.5972500000000001,0.73575,0.56225,0.9105,0.84425,0.82875,0.7725,0.77,0.7345,0.49615027829313546,0.4975024975024975,0.5377765092050806,0.49999208294701775,0.4981434565239337,0.43682728334671433,0.8707174861509013,0.8065961758987822
0.6235,0.61,0.67625,0.5965,0.733,0.5615,0.90825,0.84075,0.82375,0.7575,0.76375,0.703,0.49971457114314255,0.49969673183958896,0.5394926502069359,0.5023355236956002,0.49912516826125075,0.648774462882828,0.6926159947466104,0.7577998548045064
0.6204999999999999,0.60875,0.67375,0.59575,0.7302500000000001,0.5607500000000001,0.9059999999999999,0.8372499999999999,0.81875,0.7425,0.7575,0.6715000000000001,0.5001748251748251,0.4999892964178678,0.5398886827458256,0.5029965957003406,0.5016150741340099,0.677645294771555,0.20963803470032571,0.61554320385861
0.6175,0.6075,0.67125,0.595,0.7275,0.56,0.90375,0.83375,0.81375,0.7275,0.75125,0.64,0.4991758241758242,0.5001498501498501,0.5401348651348652,0.5042356108702005,0.5043504078753165,0.6783162557408323,0.2771241154795705,0.6411260081797712
0.6175,0.6075,0.67125,0.595,0.7275,0.56,0.90375,0.83375,0.81375,0.7275,0.75125,0.64,0.49836948765520195,0.5001462822891394,0.5395318966747538,0.5051698203979704,0.5062227855192595,0.6783162557408323,0.2771241154795705,0.6411260081797712
0.6175,0.6075,0.67125,0.595,0.7275,0.56,0.90375,0.83375,0.81375,0.7275,0.75125,0.64,0.49749892964178677,0.5006279434850863,0.5393713429427716,0.5064207111782598,0.5087522764247591,0.7322892155921713,0.2386748124116666,0.6329979742305856
0.61725,0.6072500000000001,0.67125,0.5945,0.727,0.5565,0.904,0.8334999999999999,0.8165,0.73075,0.75425,0.6555,0.4979413443699158,0.5012915655772798,0.5438882546025403,0.5088631149807741,0.5137004199583483,0.7246639687355622,0.2414653643301145,0.6095935273748491
0.617,0.607,0.67125,0.594,0.7265,0.5529999999999999,0.90425,0.83325,0.8192499999999999,0.7340000000000001,0.75725,0.6709999999999999,0.4984800913372342,0.5009347795062081,0.5522620236905951,0.5096191913581749,0.522682290331427,0.7246639687355622,0.2414653643301145,0.6095935273748491
0.61675,0.60675,0.67125,0.5935,0.726,0.5495,0.9045000000000001,0.833,0.8220000000000001,0.73725,0.7602500000000001,0.6865000000000001,0.4995682888540031,0.4991223062651634,0.5602754388468674,0.5109611279227212,0.534391577361874,0.7253409620550217,0.2355560287816229,0.5675597158796493
0.6164999999999999,0.6065,0.67125,0.593,0.7254999999999999,0.546,0.9047499999999999,0.8327500000000001,0.82475,0.7404999999999999,0.76325,0.7020000000000001,0.5002961324389896,0.49746681889539035,0.5650456686170972,0.5131581037328636,0.5508431651055812,0.7240995818958907,0.22155022690383164,0.5456464752850516
0.61625,0.60625,0.67125,0.5925,0.725,0.5425,0.905,0.8325,0.8275,0.74375,0.76625,0.7175,0.5011773940345369,0.4988939631796775,0.5740366776081062,0.5149354769422341,0.5687950309687775,0.6151592873969463,0.21559734435017952,0.44783558405282264
0.61625,0.60625,0.67125,0.5925,0.725,0.5425,0.905,0.8325,0.8275,0.74375,0.76625,0.7175,0.500556586270872,0.49953261024689594,0.578603539317825,0.5154500836834955,0.585393083403276,0.6151592873969463,0.21559734435017952,0.44783558405282264
0.62175,0.60975,0.6765000000000001,0.59625,0.73075,0.5489999999999999,0.91475,0.843,0.8345,0.7552500000000001,0.775,0.7334999999999999,0.5022334808049094,0.5027472527472527,0.5822641644070216,0.5190127469385262,0.5969242377786514,0.4840564397487298,0.2616715843034044,0.38339399000974655
0.62725,0.6132500000000001,0.68175,0.6,0.7365,0.5555,0.9245,0.8534999999999999,0.8415,0.7667499999999999,0.78375,0.7495,0.5003603539317825,0.5086806051091766,0.5838340231197374,0.5244082026190225,0.6017377911329373,0.22696943041367376,0.30960010093631163,0.11303678762631278
0.63275,0.61675,0.687,0.60375,0.74225,0.562,0.93425,0.8640000000000001,0.8484999999999999,0.77825,0.7925,0.7655,0.4947623804766662,0.5148815470244041,0.5830027115741402,0.5320718878651066,0.5967104772552622,0.20997751737997988,0.3069395153253798,0.0805652259513462
0.63825,0.62025,0.6922499999999999,0.6075,0.748,0.5685,0.9440000000000001,0.8745,0.8554999999999999,0.78975,0.80125,0.7815000000000001,0.4952547452547453,0.512987012987013,0.5674397031539888,0.5420394284400814,0.5837978007718242,0.20212738247298578,0.2951466952343992,0.05412080285843344
0.64375,0.62375,0.6975,0.61125,0.75375,0.575,0.95375,0.885,0.8625,0.80125,0.81,0.7975,0.4963001284429856,0.5064792350506636,0.5528150421007564,0.5420117190177702,0.555466710178888,0.20212738247298578,0.2951466952343992,0.05412080285843344
0.6452500000000001,0.62625,0.6984999999999999,0.613,0.7565000000000001,0.57825,0.95375,0.88575,0.86275,0.8025,0.81025,0.7995,0.4928214642500357,0.5058013415156273,0.5340837733694876,0.5312010150707558,0.5244992472269479,0.17408536261697866,0.2885047950553436,0.010985664333529859
0.6467499999999999,0.62875,0.6995,0.61475,0.75925,0.5815,0.95375,0.8865000000000001,0.863,0.80375,0.8105,0.8015000000000001,0.4935136292279149,0.503439417725132,0.5166012558869701,0.5188346146549278,0.49796532255322806,0.17408536261697866,0.2885047950553436,0.010985664333529859
0.64825,0.63125,0.7005,0.6164999999999999,0.762,0.58475,0.95375,0.88725,0.8632500000000001,0.805,0.8107500000000001,0.8035,0.4988832595975453,0.500024975024975,0.5053161124589696,0.504916475940782,0.4764349602577196,0.16238239187593612,0.28953401543041757,0.004743325598794025
0.6497499999999999,0.63375,0.7015,0.6182500000000001,0.7647499999999999,0.588,0.95375,0.888,0.8634999999999999,0.80625,0.8109999999999999,0.8055,0.49838375909804483,0.5001534180105609,0.5046988725560154,0.4897870319279509,0.46039901657281507,0.15796315319939727,0.2915968097839954,0.00118941569989278
0.65125,0.63625,0.7025,0.62,0.7675,0.59125,0.95375,0.88875,0.86375,0.8075,0.81125,0.8075,0.49857642357642357,0.5047559583273868,0.5044848009133723,0.48461325286418694,0.45746179849123647,0.15669361946303456,0.29262789520547783,0.0019418885266364748
0.65125,0.63625,0.7025,0.62,0.7675,0.59125,0.95375,0.88875,0.86375,0.8075,0.81125,0.8075,0.5003996003996004,0.5033216783216783,0.5044526901669759,0.4882669619653867,0.45794473739204195,0.1582785265025218,0.2920392810735396,0.0019408588543260315
0.65125,0.63625,0.7025,0.62,0.7675,0.59125,0.95375,0.88875,0.86375,0.8075,0.81125,0.8075,0.4998430141287284,0.5025189096617668,0.5046132438989582,0.4902185099069815,0.4574934668269899,0.15859188771739596,0.2936599149786413,0.0012992036598683462
0.65125,0.63625,0.7025,0.62,0.7675,0.59125,0.95375,0.88875,0.86375,0.8075,0.81125,0.8075,0.4980626516340802,0.5023369487655202,0.5044705294705295,0.49134668656726055,0.4573747113108609,0.15922062223539465,0.2930717671083052,0.001402278346807973
0.6517499999999999,0.637,0.7025,0.62025,0.76775,0.5925,0.9545,0.88925,0.8640000000000001,0.8085,0.8109999999999999,0.8077500000000001,0.49519052376195233,0.5032324818039103,0.5036570572284857,0.492229435328036,0.4579170279697309,0.15763772336958926,0.2926296066598291,0.0019413233630367517
0.65225,0.63775,0.7025,0.6204999999999999,0.768,0.59375,0.95525,0.8897499999999999,0.86425,0.8095,0.8107500000000001,0.8079999999999999,0.491565577279863,0.5041422862851435,0.5026580562294848,0.4947668433948642,0.45982107365534436,0.15763772336958926,0.2926296066598291,0.0019413233630367517
0.65275,0.6385000000000001,0.7025,0.62075,0.76825,0.595,0.956,0.8902500000000001,0.8645,0.8105,0.8105,0.80825,0.48692022263450835,0.5040245468816897,0.501555587269873,0.49914891938924144,0.46282162840842983,0.15921458988521203,0.291303436155469,0.002265727949378404
0.65325,0.63925,0.7025,0.621,0.7685,0.59625,0.95675,0.89075,0.8647499999999999,0.8115000000000001,0.81025,0.8085,0.48149707435421724,0.502022977022977,0.5002854288568575,0.5038635105563661,0.46692660856997925,0.15952995927376795,0.29248253129423074,0.00258857918594656
0.65375,0.64,0.7025,0.62125,0.76875,0.5975,0.9575,0.89125,0.865,0.8125,0.81,0.80875,0.4760346796061082,0.49924361352932783,0.49878692735835595,0.5072440823667073,0.4721914332322636,0.15795108849903194,0.2930719225288392,0.0020488690313296637
0.65375,0.64,0.7025,0.62125,0.76875,0.5975,0.9575,0.89125,0.865,0.8125,0.81,0.80875,0.4710575139146568,0.49601826744683886,0.49731696874554016,0.5093183441497076,0.47869923165281114,0.15858183119071248,0.2930716116877711,0.0011819420743845272
0.65375,0.64,0.7025,0.62125,0.76875,0.5975,0.9575,0.89125,0.865,0.8125,0.81,0.80875,0.4665227629513344,0.493031968031968,0.4956008277436849,0.5093658462818645,0.4861451982050099,0.15858183119071248,0.2930716116877711,0.0011819420743845272
0.654,0.6405,0.7027500000000001,0.62225,0.7695000000000001,0.59775,0.9577500000000001,0.8917499999999999,0.8654999999999999,0.813,0.81025,0.8095,0.46261952333380907,0.4909519052376195,0.4936884544027401,0.5082732961897471,0.4939513893522673,0.157633703107657,0.2930719225288392,0.0014051735350679307
0.65425,0.6409999999999999,0.703,0.6232500000000001,0.7702500000000001,0.598,0.958,0.89225,0.866,0.8134999999999999,0.8105,0.81025,0.45950121307264163,0.49057014414157274,0.4926395033537891,0.5065513421964719,0.5035824559648765,0.157633703107657,0.2930719225288392,0.0014051735350679307
0.6545000000000001,0.6415000000000001,0.70325,0.62425,0.7709999999999999,0.5982500000000001,0.95825,0.89275,0.8665,0.8140000000000001,0.8107500000000001,0.8109999999999999,0.4566790352504638,0.49107678036249464,0.49339945768517196,0.5049877287056321,0.5150225639987853,0.1592125777969616,0.29366100475085644,0.0021623125320374965
0.6547499999999999,0.642,0.7034999999999999,0.62525,0.7717499999999999,0.5985,0.9584999999999999,0.89325,0.867,0.8145,0.8109999999999999,0.81175,0.45452761524190094,0.49186170971885257,0.49450192664478376,0.5037843402122801,0.5276462675375952,0.15795108849903194,0.2918937617417585,0.0015137318731562517
0.655,0.6425,0.70375,0.62625,0.7725,0.59875,0.95875,0.89375,0.8675,0.815,0.81125,0.8125,0.4535214785214785,0.49229698872556016,0.4968174682460397,0.5027551263892404,0.5404362288485156,0.15795108849903194,0.2918937617417585,0.0015137318731562517
0.655,0.6425,0.70375,0.62625,0.7725,0.59875,0.95875,0.89375,0.8675,0.815,0.81125,0.8125,0.453300271157414,0.49253246753246754,0.499860853432282,0.5019436308267003,0.5520861378732493,0.15762565866922396,0.29263038559097615,0.0026962125872170483
0.655,0.6425,0.70375,0.62625,0.7725,0.59875,0.95875,0.89375,0.8675,0.815,0.81125,0.8125,0.45468816897388326,0.49296417867846437,0.5045097759383473,0.5005898186981587,0.5624178618329005,0.15857579884052983,0.2921882233140233,0.0011864103353354048
0.655,0.6425,0.7040000000000001,0.626,0.77275,0.59975,0.95875,0.89425,0.8675,0.8155,0.812,0.81325,0.4982695875553018,0.47000856286570575,0.5232410446696161,0.4729870935744195,0.5324123192550217,0.15730827719241758,0.29174668637616014,0.0013994831333364185
0.655,0.6425,0.7042499999999999,0.62575,0.773,0.60075,0.95875,0.8947499999999999,0.8675,0.816,0.8127500000000001,0.8140000000000001,0.5089731696874554,0.4612566005423148,0.5438561438561439,0.44558625269808394,0.4995526878530927,0.15857981910246208,0.2920411479484249,0.0019413233630367517
0.655,0.6425,0.7045,0.6255,0.77325,0.60175,0.95875,0.8952500000000001,0.8675,0.8165,0.8134999999999999,0.81475,0.521635507349793,0.4888076209504781,0.5811224489795919,0.4390744957046111,0.4515913237180094,0.15857981910246208,0.2920411479484249,0.0019413233630367517
0.655,0.6425,0.70475,0.62525,0.7735,0.60275,0.95875,0.89575,0.8675,0.8170000000000001,0.8142499999999999,0.8155,0.5313293849008135,0.48191808191808194,0.600278293135436,0.4437415849562716,0.415347162582892,0.1563641693712943,0.38884059282138406,0.01944748893745641
0.655,0.6425,0.705,0.625,0.77375,0.60375,0.95875,0.89625,0.8675,0.8175,0.815,0.81625,0.5439560439560439,0.4969030969030969,0.6204866562009419,0.4378671487312022,0.38153352764319115,0.137737074493833,0.38619742893807946,0.03438413242487997
0.655,0.6425,0.705,0.625,0.77375,0.60375,0.95875,0.89625,0.8675,0.8175,0.815,0.81625,0.5150884829456258,0.5294776651919509,0.6250178393035536,0.4591639598984901,0.3870358635853822,0.19430138479585946,0.3098892763819422,0.05110369772438011
0.655,0.6425,0.705,0.625,0.77375,0.60375,0.95875,0.89625,0.8675,0.8175,0.815,0.81625,0.5162730127015841,0.5431532752961324,0.6045632938490081,0.4851634864831709,0.4037803814536183,0.23970498996946604,0.2898670542077073,0.10358569684886755
0.6495000000000001,0.63575,0.69975,0.6182500000000001,0.7659999999999999,0.59425,0.95,0.88575,0.86225,0.8122499999999999,0.8085,0.812,0.5121414299985728,0.5173897531040388,0.5743363779078065,0.4911764705936981,0.4400126663437062,0.2621165566552849,0.33348377919129724,0.1271098298487318
0.644,0.629,0.6945,0.6114999999999999,0.75825,0.58475,0.94125,0.8752500000000001,0.857,0.807,0.802,0.8077500000000001,0.5105858427286999,0.5258420151277294,0.560939060939061,0.48633124817619056,0.46443670238765916,0.2886541021124296,0.36781590820260596,0.1411850089472403
0.6385000000000001,0.62225,0.6892499999999999,0.60475,0.7505,0.57525,0.9325,0.8647499999999999,0.85175,0.80175,0.7955,0.8035,0.5038390181247324,0.5125160553731982,0.5426252319109462,0.4926529965946014,0.48340986483517645,0.3703258955068864,0.39229723143679585,0.18170448259964786
0.633,0.6154999999999999,0.684,0.598,0.74275,0.56575,0.92375,0.85425,0.8465,0.7965000000000001,0.789,0.79925,0.49757385471671184,0.5039745968317397,0.5260382474668189,0.4974586334221587,0.4982978388403951,0.3844794488124593,0.39775707982998915,0.2066189357374465
0.6275,0.60875,0.67875,0.59125,0.735,0.55625,0.915,0.84375,0.84125,0.79125,0.7825,0.795,0.4947623804766662,0.5005886970172685,0.5340480947623805,0.4973715461179587,0.5015636134289276,0.4264863436830247,0.425031902487343,0.24923354430489247
0.6275,0.60875,0.67875,0.59125,0.735,0.55625,0.915,0.84375,0.84125,0.79125,0.7825,0.795,0.49486941629798775,0.5002568859711717,0.534636791779649,0.4970786160243859,0.4991805873844778,0.45636429620331637,0.41547290881950294,0.3015460460371087
0.624,0.60575,0.6757500000000001,0.58825,0.731,0.551,0.912,0.84125,0.8390000000000001,0.78325,0.7797499999999999,0.79,0.4945269016697588,0.49990723562152134,0.5355287569573284,0.4974863430456844,0.4978465678110015,0.48409632137342856,0.26021902582076484,0.4813274693753691
0.6204999999999999,0.60275,0.6727500000000001,0.5852499999999999,0.727,0.5457500000000001,0.909,0.83875,0.83675,0.7752500000000001,0.777,0.785,0.49561509918652774,0.49945054945054945,0.5377194234337092,0.49822262679062945,0.497565513265946,0.5305304993589659,0.19686831792841264,0.48851888985949216
0.617,0.59975,0.66975,0.58225,0.723,0.5405,0.9059999999999999,0.83625,0.8345,0.76725,0.77425,0.78,0.49625017839303553,0.4997002997002997,0.5387505351791066,0.49959623144328047,0.4986738974253328,0.5807853471685253,0.14427498927365184,0.5031050156178846
0.6135,0.59675,0.66675,0.5792499999999999,0.7190000000000001,0.53525,0.903,0.83375,0.8322499999999999,0.75925,0.7715000000000001,0.775,0.4961217354074497,0.4993970315398887,0.5385364635364636,0.5014646504369079,0.5005739846308893,0.7047207215245123,0.18131997822115825,0.7061044505141337
0.61,0.59375,0.66375,0.57625,0.715,0.53,0.9,0.83125,0.83,0.75125,0.76875,0.77,0.49597902097902097,0.4993506493506494,0.5388432995575853,0.503645792202998,0.502612619876684,0.7186554347881572,0.18530035843760093,0.710209183411478
0.61,0.59375,0.66375,0.57625,0.715,0.53,0.9,0.83125,0.83,0.75125,0.76875,0.77,0.49667832167832165,0.4995468816897388,0.5401277294134437,0.5048056371371182,0.5036932944976744,0.7186554347881572,0.18530035843760093,0.710209183411478
0.61,0.59375,0.66375,0.57625,0.715,0.53,0.9,0.83125,0.83,0.75125,0.76875,0.77,0.49748465819894394,0.4994826601969459,0.542122163550735,0.5061990343757907,0.5059417309664649,0.702336494811991,0.22373614357599728,0.6707391131481628
0.61225,0.59525,0.6659999999999999,0.57675,0.7165,0.53,0.9002500000000001,0.83175,0.83025,0.7547499999999999,0.7702500000000001,0.772,0.4974418438704153,0.4995540174111603,0.547534608248894,0.5097775318606103,0.516997863130283,0.702336494811991,0.22373614357599728,0.6707391131481628
0.6145,0.59675,0.66825,0.57725,0.718,0.53,0.9005,0.8322499999999999,0.8305,0.75825,0.7717499999999999,0.774,0.49775224775224775,0.4981982303410875,0.551833880405309,0.5130868502250672,0.5302826390298285,0.6846555472458836,0.2219595661924727,0.6524064396756369
0.61675,0.5982500000000001,0.6705,0.57775,0.7195,0.53,0.90075,0.8327500000000001,0.83075,0.7617499999999999,0.77325,0.7759999999999999,0.4973633509347795,0.49905094905094904,0.5562615955473098,0.5165188824618857,0.5444422469467283,0.641742750743541,0.21840438547305038,0.6108968769279831
0.619,0.59975,0.6727500000000001,0.57825,0.721,0.53,0.9009999999999999,0.83325,0.831,0.7652500000000001,0.7747499999999999,0.778,0.49747395461681176,0.5010881975167689,0.5656629085200514,0.5207861612344543,0.5642427384126719,0.6158480126784421,0.2161858048900606,0.5908280807259609
0.62125,0.60125,0.675,0.57875,0.7225,0.53,0.90125,0.83375,0.83125,0.76875,0.77625,0.78,0.4950014271442843,0.502251320108463,0.576605537319823,0.5241904839251373,0.5848072226589206,0.5830090413381261,0.2216276098734906,0.5684877702786441
0.62575,0.605,0.679,0.585,0.7275,0.53875,0.91025,0.8445,0.83575,0.7765000000000001,0.782,0.7859999999999999,0.49340302554588267,0.5066326530612245,0.5819394890823462,0.5275433458178698,0.5949370613496169,0.5830090413381261,0.2216276098734906,0.5684877702786441
0.63025,0.60875,0.6829999999999999,0.59125,0.7325,0.5475,0.91925,0.8552500000000001,0.84025,0.78425,0.7877500000000001,0.792,0.4887612387612388,0.5124197231340089,0.5837769373483659,0.5320956378786778,0.5981078315500111,0.4880517189042879,0.24546649044513594,0.4829348851063615
0.63475,0.6125,0.687,0.5975,0.7375,0.55625,0.92825,0.866,0.8447499999999999,0.792,0.7935,0.7979999999999999,0.48692735835592976,0.5153739118024833,0.5768695590124162,0.5388488641677729,0.5948222642516328,0.4880517189042879,0.24546649044513594,0.4829348851063615
0.63925,0.61625,0.691,0.60375,0.7425,0.565,0.9372499999999999,0.8767499999999999,0.84925,0.79975,0.79925,0.804,0.48418367346938773,0.5153168260311117,0.5662087912087912,0.5441097306595613,0.582804212557307,0.456201093924624,0.25400046557775174,0.4469196660490591
0.64375,0.62,0.695,0.61,0.7475,0.57375,0.94625,0.8875,0.85375,0.8075,0.805,0.81,0.4748394462680177,0.5169651776794634,0.5436920222634508,0.5449093509367107,0.5699707079038476,0.36796109288366197,0.2851976472234768,0.32304790601975975
0.64375,0.62,0.695,0.61,0.7475,0.57375,0.94625,0.8875,0.85375,0.8075,0.805,0.81,0.4652240616526331,0.5152347652347652,0.5228771228771228,0.5436188754177637,0.5589106181654384,0.2132378167116941,0.31370453599454634,0.043817807186125754
0.64375,0.62,0.695,0.61,0.7475,0.57375,0.94625,0.8875,0.85375,0.8075,0.805,0.81,0.46309761666904525,0.5098330241187384,0.5053589267874982,0.5353376624536391,0.5443195325171569,0.2132378167116941,0.31370453599454634,0.043817807186125754
0.64375,0.62,0.695,0.61,0.7475,0.57375,0.94625,0.8875,0.85375,0.8075,0.805,0.81,0.4651955187669473,0.5081668331668332,0.49815898387326957,0.5226704150150804,0.5285527674573174,0.20187032841257446,0.30412454226984237,0.03005168620388943
0.645,0.6225,0.69575,0.6125,0.75075,0.5775,0.9465,0.88775,0.853,0.8077500000000001,0.8055,0.81025,0.4665049236477808,0.509433423719138,0.49148351648351646,0.5086058116101434,0.5102723457062892,0.15763973545783966,0.29321759910963124,0.001727898272924239
0.64625,0.625,0.6965,0.615,0.754,0.58125,0.94675,0.888,0.85225,0.8079999999999999,0.8059999999999999,0.8105,0.47703011274439844,0.5109247894962181,0.49551163122591696,0.5003760590724963,0.49011162976911127,0.15763973545783966,0.29321759910963124,0.001727898272924239
0.6475,0.6275,0.6972499999999999,0.6175,0.75725,0.585,0.9470000000000001,0.88825,0.8515,0.80825,0.8065000000000001,0.8107500000000001,0.48846510632224915,0.5120022834308549,0.4993256743256743,0.4937890901530822,0.4706396954292435,0.15859389589107778,0.29262867413662486,0.0028034290868189076
0.64875,0.63,0.698,0.62,0.7605,0.58875,0.9472499999999999,0.8885,0.85075,0.8085,0.807,0.8109999999999999,0.4959362066504924,0.5156058227486799,0.50347866419295,0.49515477772179484,0.46021692562342315,0.15858987562914553,0.29307099000563497,0.002156953339298851
0.65,0.6325,0.69875,0.6225,0.76375,0.5925,0.9475,0.88875,0.85,0.80875,0.8075,0.81125,0.4966854573997431,0.51217710860568,0.50501998001998,0.5004393950320128,0.4595518950302793,0.16016673823019972,0.29292422548110475,0.002157982331508694
0.6505,0.63325,0.6990000000000001,0.623,0.7655,0.59375,0.9477500000000001,0.88875,0.8515,0.8095,0.8075,0.8115000000000001,0.49863350934779505,0.5076423576423577,0.5048166119594691,0.5077784815701658,0.46449212197522766,0.159538003712201,0.29233483241801944,0.0015089256022065014
0.6509999999999999,0.634,0.6992499999999999,0.6235,0.76725,0.595,0.948,0.88875,0.853,0.81025,0.8075,0.81175,0.5006778935350364,0.5010774939346367,0.5039995718567147,0.5120655530525803,0.471803498595772,0.159538003712201,0.29233483241801944,0.0015089256022065014
0.6515000000000001,0.63475,0.6995,0.624,0.769,0.59625,0.94825,0.88875,0.8545,0.8109999999999999,0.8075,0.812,0.5017660910518054,0.4947695161980876,0.5032431853860425,0.5131343521095754,0.4790317463302611,0.15921861014714422,0.2929245363221728,0.0011897707124066872
0.652,0.6355,0.69975,0.6245,0.77075,0.5975,0.9484999999999999,0.88875,0.856,0.81175,0.8075,0.8122499999999999,0.5014057371200228,0.4902989867275582,0.5029113743399458,0.5103475576941425,0.48512785935779956,0.15921861014714422,0.2929245363221728,0.0011897707124066872
0.6525,0.63625,0.7,0.625,0.7725,0.59875,0.94875,0.88875,0.8575,0.8125,0.8075,0.8125,0.50079563293849,0.49019908662765804,0.5026616240901955,0.5050431478598153,0.4871308679735205,0.1607914524862662,0.2924828421352989,0.003018615637488919
0.6525,0.63625,0.7,0.625,0.7725,0.59875,0.94875,0.88875,0.8575,0.8125,0.8075,0.8125,0.49945768517197087,0.490263308120451,0.5023119737405451,0.4999129126338879,0.48845697049401454,0.15953197136201838,0.2926297620803631,0.0026961173731328567
0.6525,0.63625,0.7,0.625,0.7725,0.59875,0.94875,0.88875,0.8575,0.8125,0.8075,0.8125,0.49729199372056515,0.49083059797345513,0.5017054374197232,0.49690048287401684,0.48799382417923054,0.15762767075747436,0.29277746095657453,0.002589696591234579
0.653,0.63725,0.701,0.62525,0.77275,0.59925,0.9484999999999999,0.8895000000000001,0.857,0.813,0.8075,0.8127500000000001,0.49426287997716567,0.4909519052376195,0.5008420151277294,0.495495210071349,0.48640250132799184,0.15794505223428074,0.2932194659845165,0.002152718352854235
0.6535,0.63825,0.7020000000000001,0.6255,0.773,0.59975,0.94825,0.8902500000000001,0.8565,0.8134999999999999,0.8075,0.813,0.4907021549878693,0.4896888825460254,0.4995932638789782,0.49534874507099674,0.4844113684620028,0.15699893623947564,0.2932193105639825,0.00194356633482001
0.654,0.63925,0.703,0.62575,0.77325,0.60025,0.948,0.8909999999999999,0.856,0.8140000000000001,0.8075,0.81325,0.4868096189524761,0.48744113029827313,0.49801270158413014,0.4944145354813147,0.4829348423372751,0.15825640527547302,0.29218853598356814,0.0030237680796447565
0.6545000000000001,0.6402500000000001,0.7040000000000001,0.626,0.7735,0.60075,0.9477500000000001,0.8917499999999999,0.8554999999999999,0.8145,0.8075,0.8134999999999999,0.48239260739260736,0.48411945197659484,0.49605751391465674,0.4919444221326649,0.48304568076946575,0.1598433204886421,0.29336623050904675,0.0020472939183369355
0.655,0.64125,0.705,0.62625,0.77375,0.60125,0.9475,0.8925,0.855,0.815,0.8075,0.81375,0.4786784643927501,0.480969030969031,0.49441629798772657,0.48940305552386754,0.4834613248282684,0.1598433204886421,0.29336623050904675,0.0020472939183369355
0.655,0.64125,0.705,0.62625,0.77375,0.60125,0.9475,0.8925,0.855,0.815,0.8075,0.81375,0.4723562152133581,0.47910660767803626,0.4918260311117454,0.48399968294516926,0.48793048800302125,0.15541000893805615,0.2918934509006904,0.0030198527404827796
0.655,0.64125,0.705,0.62625,0.77375,0.60125,0.9475,0.8925,0.855,0.815,0.8075,0.81375,0.46570572284858,0.47913871842443273,0.49013129727415444,0.47924550660600157,0.4955110439915769,0.15541000893805615,0.2918934509006904,0.0030198527404827796
0.655,0.64125,0.705,0.62625,0.77375,0.60125,0.9475,0.8925,0.855,0.815,0.8075,0.81375,0.4589696018267447,0.48060867703724847,0.48950692164977877,0.4767556005475059,0.5052133638643338,0.15731430954260023,0.2921886914041022,0.001940754118833421
0.655,0.6415000000000001,0.705,0.62625,0.774,0.60125,0.9475,0.89225,0.8554999999999999,0.815,0.80825,0.8140000000000001,0.4543206793206793,0.48298844013129727,0.4892000856286571,0.47760272283298794,0.515362995883998,0.15858183119071248,0.29263085185257826,0.002696673015324161
0.655,0.6417499999999999,0.705,0.62625,0.77425,0.60125,0.9475,0.892,0.856,0.815,0.809,0.8142499999999999,0.44988939631796776,0.48539317825032113,0.4889146567717996,0.4800609606795546,0.5260707787304089,0.15858183119071248,0.29263085185257826,0.002696673015324161
0.655,0.642,0.705,0.62625,0.7745000000000001,0.60125,0.9475,0.8917499999999999,0.8565,0.815,0.80975,0.8145,0.4496610532324818,0.48276366490652206,0.4914656771799629,0.4859353965331508,0.5337859240314972,0.15952392692358533,0.2929245363221728,0.0020498653787106476
0.655,0.64225,0.705,0.62625,0.7747499999999999,0.60125,0.9475,0.8915000000000001,0.857,0.815,0.8105,0.81475,0.4826352219209362,0.45650421007563863,0.49384900813472243,0.47732958548021714,0.5296809440556843,0.15952392692358533,0.2929245363221728,0.0020498653787106476
0.655,0.6425,0.705,0.62625,0.775,0.60125,0.9475,0.89125,0.8575,0.815,0.81125,0.815,0.5163408020550878,0.42956329384900815,0.49553303839018126,0.46727099980201964,0.5230939754767873,0.15825841736372342,0.2927777717976426,0.002265952382576851
0.655,0.6425,0.705,0.62625,0.775,0.60125,0.9475,0.89125,0.8575,0.815,0.81125,0.815,0.5327101469958613,0.45597973455116314,0.5106857428286,0.4549521018898217,0.4837186273321284,0.1573122974543498,0.29307223519838416,0.0021549511231284697
0.655,0.6425,0.705,0.62625,0.775,0.60125,0.9475,0.89125,0.8575,0.815,0.81125,0.815,0.5438597117168545,0.4654631083202512,0.531878835450264,0.4655767554787043,0.43892407200750916,0.23285325794980766,0.3176821149844226,0.014019856995192143
0.655,0.6425,0.705,0.62625,0.775,0.60125,0.9475,0.89125,0.8575,0.815,0.81125,0.815,0.5537962037962038,0.46551305837020124,0.5498786927358356,0.4613490616924421,0.40127463676956787,0.23285325794980766,0.3176821149844226,0.014019856995192143
0.6535,0.63925,0.7040000000000001,0.62275,0.7709999999999999,0.595,0.94675,0.8905,0.8584999999999999,0.81575,0.81175,0.8175,0.5356143856143856,0.4906664763807621,0.5820322534608249,0.471280975018221,0.3829783801696287,0.2880615656100954,0.3011909595766349,0.0610157906138478
0.652,0.636,0.703,0.61925,0.767,0.58875,0.946,0.8897499999999999,0.8595,0.8165,0.8122499999999999,0.82,0.5142464678178964,0.5180498073355216,0.5940595119166547,0.48103079665166165,0.38158102445089925,0.2880515090834119,0.26997028748854773,0.09396819157517709
0.6505,0.63275,0.7020000000000001,0.61575,0.763,0.5825,0.94525,0.889,0.8604999999999999,0.8172499999999999,0.8127500000000001,0.8225,0.5093799058084773,0.49207578136149566,0.5927750820607963,0.49106563132569286,0.411614277689333,0.30219501760600714,0.2549598436217829,0.15876242934176413
0.649,0.6295000000000001,0.701,0.61225,0.759,0.57625,0.9445,0.88825,0.8615,0.818,0.81325,0.825,0.5080134151562723,0.4829706008277437,0.5825174825174825,0.4803578489126673,0.4498535323374233,0.361189797419197,0.3573711911960535,0.2116676401082594
0.6475,0.62625,0.7,0.60875,0.755,0.57,0.94375,0.8875,0.8625,0.81875,0.81375,0.8275,0.5053803339517625,0.49009561866704726,0.5710753532182103,0.48516744437506204,0.4802628440911436,0.4161752330319189,0.3980521649128669,0.2570586587258338
0.6475,0.62625,0.7,0.60875,0.755,0.57,0.94375,0.8875,0.8625,0.81875,0.81375,0.8275,0.4988796917368346,0.4951048951048951,0.5447766519195091,0.4895059768102076,0.49955664642601794,0.45918656314000267,0.4144236227392462,0.29740367025158027
0.639,0.619,0.69175,0.6032500000000001,0.74575,0.561,0.9345,0.87625,0.85275,0.8045,0.80375,0.81325,0.4965570144141573,0.4976273726273726,0.5396853146853147,0.4933774044814682,0.5013379780844893,0.6153804840091597,0.4152153111694351,0.44768316466675195
0.6305,0.61175,0.6835,0.59775,0.7365,0.552,0.92525,0.865,0.843,0.79025,0.79375,0.799,0.49451263022691594,0.4999393463679178,0.5352825745682889,0.4969994457422121,0.5030757660753827,0.47649855087368637,0.40967791890061817,0.7168154943054414
0.622,0.6045,0.67525,0.59225,0.72725,0.5429999999999999,0.9159999999999999,0.85375,0.83325,0.7759999999999999,0.78375,0.78475,0.49385257599543314,0.5017982017982018,0.5339517625231911,0.49677381039777385,0.5016269496090064,0.7049533095312949,0.1455099425523468,0.7815760500897466
0.6135,0.5972500000000001,0.667,0.58675,0.718,0.534,0.90675,0.8425,0.8234999999999999,0.7617499999999999,0.77375,0.7705,0.49470886256600544,0.5007849293563579,0.5352861424289995,0.4959029371390816,0.5004275195957114,0.7404097728112794,0.15332440472230408,0.7925769153518172
0.605,0.59,0.65875,0.58125,0.70875,0.525,0.8975,0.83125,0.81375,0.7475,0.76375,0.75625,0.4955259026687598,0.4998786927358356,0.5366526330812045,0.49632649821991043,0.49998812445535223,0.7543505184251073,0.16378747597968785,0.7957948841178762
0.605,0.59,0.65875,0.58125,0.70875,0.525,0.8975,0.83125,0.81375,0.7475,0.76375,0.75625,0.49556514913657773,0.4997645211930926,0.5369380619380619,0.4974586334840709,0.5000039585148826,0.7527817002624859,0.17159681110049876,0.7975123394460668
0.60425,0.589,0.65825,0.58,0.7072499999999999,0.5235,0.8965000000000001,0.83075,0.8145,0.747,0.7635,0.7552500000000001,0.49607178535749963,0.5014485514485515,0.5392964178678464,0.5011796374272735,0.5049243925487704,0.7357053264970977,0.18058366521300864,0.7975089743082913
0.6035,0.588,0.6577500000000001,0.57875,0.70575,0.522,0.8955,0.83025,0.81525,0.7465,0.76325,0.75425,0.4959469102326245,0.5007742257742258,0.5430997573854717,0.5060209010706411,0.5144287868205696,0.7142278111057188,0.18764859265856185,0.7876500326410204
0.60275,0.5870000000000001,0.6572499999999999,0.5775,0.7042499999999999,0.5205,0.8945000000000001,0.82975,0.816,0.746,0.763,0.75325,0.49603253888968174,0.50074568288854,0.5469637505351791,0.5102525535226969,0.5260589035997989,0.7142278111057188,0.18764859265856185,0.7876500326410204
0.602,0.586,0.65675,0.57625,0.7027500000000001,0.519,0.8935,0.8292499999999999,0.81675,0.7454999999999999,0.76275,0.75225,0.4965213358070501,0.500506636220922,0.5517803624946482,0.5143654504276677,0.5392882600201223,0.7133158810383277,0.1846972700827516,0.7742518154795881
0.6075,0.59,0.6609999999999999,0.5792499999999999,0.7075,0.524,0.90225,0.8370000000000001,0.8240000000000001,0.7552500000000001,0.7697499999999999,0.76325,0.49666761809618953,0.5015163408020551,0.5564899386327957,0.5187396094000187,0.5541920688278177,0.5936190997625923,0.17918313421125734,0.5982015729823735
0.61375,0.595,0.6657500000000001,0.5835,0.71375,0.5305,0.912,0.8452500000000001,0.8305,0.7655,0.777,0.7752500000000001,0.49565434565434563,0.5020336806051092,0.5608784073069787,0.5206476137514258,0.5660755313334354,0.5936190997625923,0.17918313421125734,0.5982015729823735
0.62,0.6,0.6705,0.58775,0.72,0.537,0.92175,0.8534999999999999,0.8370000000000001,0.77575,0.78425,0.7872499999999999,0.4950121307264164,0.5045739974311403,0.5680533751962323,0.5209524193780378,0.5750415673529008,0.5936190997625923,0.17918313421125734,0.5982015729823735
0.62625,0.605,0.67525,0.5920000000000001,0.72625,0.5435,0.9315000000000001,0.86175,0.8434999999999999,0.7859999999999999,0.7915000000000001,0.79925,0.4997002997002997,0.5030362494648208,0.5793527900670757,0.5208099128577426,0.5823054429557076,0.5592414759251371,0.1894876180126628,0.5656073286400298
0.6325,0.61,0.68,0.59625,0.7325,0.55,0.94125,0.87,0.85,0.79625,0.79875,0.81125,0.4973883259597545,0.5071071785357499,0.5851755387469674,0.5213245200943015,0.5842213648863506,0.4580591439013887,0.2262879914958857,0.44906034730137007
0.6325,0.61,0.68,0.59625,0.7325,0.55,0.94125,0.87,0.85,0.79625,0.79875,0.81125,0.4920864849436278,0.5108962466105323,0.5813186813186813,0.5237510898527635,0.580345978425472,0.4580591439013887,0.2262879914958857,0.44906034730137007
0.6325,0.61,0.68,0.59625,0.7325,0.55,0.94125,0.87,0.85,0.79625,0.79875,0.81125,0.4792957042957043,0.5142428999571856,0.5690488083345226,0.528287547498046,0.5728604254629863,0.4186476236580115,0.2367365958442659,0.40288631049874346
0.6365,0.6135,0.6835,0.59925,0.73725,0.55625,0.9440000000000001,0.87375,0.85125,0.7979999999999999,0.8,0.8122499999999999,0.4709968602825746,0.5117132867132868,0.5517767946339375,0.5275670978126312,0.5604029794486379,0.35658757223435966,0.2608744506690937,0.30977966968525783
0.6405,0.617,0.687,0.6022500000000001,0.742,0.5625,0.94675,0.8775,0.8525,0.79975,0.80125,0.81325,0.4629905808477237,0.5113814756671899,0.5269195090623662,0.5246971744492311,0.540962712020543,0.32095850779652096,0.27412216237920134,0.26370259414526526
0.6445000000000001,0.6204999999999999,0.6905,0.60525,0.74675,0.56875,0.9495,0.88125,0.85375,0.8015000000000001,0.8025,0.8142499999999999,0.4625267589553304,0.5067932067932068,0.504830883402312,0.5193808887413475,0.5189058667387437,0.32095850779652096,0.27412216237920134,0.26370259414526526
0.6485,0.624,0.6940000000000001,0.6082500000000001,0.7515000000000001,0.575,0.9522499999999999,0.885,0.855,0.80325,0.80375,0.81525,0.4639503353789068,0.501744683887541,0.4976666190951905,0.5122753543684443,0.49743488170600214,0.1646000536953543,0.3145807677098211,0.016475233037559208
0.6525,0.6275,0.6975,0.61125,0.75625,0.58125,0.955,0.88875,0.85625,0.805,0.805,0.81625,0.47265591551305836,0.4960646496360782,0.4982588839731697,0.5041406065284965,0.47720291226102785,0.1649194472604111,0.3125173498456302,0.008936934042722871
0.6525,0.6275,0.6975,0.61125,0.75625,0.58125,0.955,0.88875,0.85625,0.805,0.805,0.81625,0.47724775224775223,0.49708862566005424,0.49946125303268163,0.5017813316739494,0.4601179615169839,0.1649194472604111,0.3125173498456302,0.008936934042722871
0.6525,0.6275,0.6975,0.61125,0.75625,0.58125,0.955,0.88875,0.85625,0.805,0.805,0.81625,0.47720137005851293,0.499582560296846,0.5037105751391465,0.5026324123775763,0.4506175256130258,0.15923871928594258,0.29351081731762363,0.002156969661713281
0.6525,0.6275,0.6975,0.61125,0.75625,0.58125,0.955,0.88875,0.85625,0.805,0.805,0.81625,0.4780148423005566,0.4995183388040531,0.5083916083916084,0.504766051887685,0.4490737043986466,0.16018483528074767,0.29233281195107697,0.0016167997590898673
0.65225,0.62825,0.698,0.61275,0.758,0.583,0.9542499999999999,0.8902500000000001,0.85675,0.80675,0.80525,0.81675,0.4809404880833452,0.49809119451976597,0.5072177822177822,0.5060763203176926,0.4527194971588543,0.15954604815063408,0.2943954508841207,0.0021584141953905492
0.652,0.629,0.6984999999999999,0.61425,0.7597499999999999,0.58475,0.9534999999999999,0.8917499999999999,0.85725,0.8085,0.8055,0.8172499999999999,0.48503996003996,0.49621093192521765,0.5039175110603682,0.5054587920114862,0.4583445470353191,0.1589092691942023,0.29248081983987945,0.002910531329519737
0.6517499999999999,0.62975,0.6990000000000001,0.61575,0.7615000000000001,0.5865,0.9527500000000001,0.89325,0.85775,0.81025,0.8057500000000001,0.8177500000000001,0.49039531896674754,0.4937847866419295,0.5008527187098616,0.5031905630031084,0.4671482844437654,0.1589092691942023,0.29248081983987945,0.002910531329519737
0.6515000000000001,0.6305,0.6995,0.61725,0.76325,0.58825,0.9520000000000001,0.8947499999999999,0.8582500000000001,0.812,0.8059999999999999,0.81825,0.49497288425859853,0.49119808762665906,0.49877265591551306,0.4993033014116199,0.4765814255676328,0.1589092691942023,0.2921865136881488,0.002694447046055937
0.65125,0.63125,0.7,0.61875,0.765,0.59,0.95125,0.89625,0.85875,0.81375,0.80625,0.81875,0.49816968745540174,0.489567575281861,0.4987369773084059,0.49411764684577275,0.48595123063911533,0.16048211153332428,0.2924820650326287,0.001834559810435394
0.65125,0.63125,0.7,0.61875,0.765,0.59,0.95125,0.89625,0.85875,0.81375,0.80625,0.81875,0.5004745254745254,0.4889753104038818,0.4993684886542029,0.4883065469826492,0.49452933226973794,0.15732034189278288,0.2920403708457547,0.0012931840894457858
0.65125,0.63125,0.7,0.61875,0.765,0.59,0.95125,0.89625,0.85875,0.81375,0.80625,0.81875,0.5018731268731269,0.48998144712430425,0.5004495504495504,0.4830971415674163,0.5014408993708295,0.15732034189278288,0.29351330587464514,0.0025903569689184934
0.65125,0.63125,0.7,0.61875,0.765,0.59,0.95125,0.89625,0.85875,0.81375,0.80625,0.81875,0.501555587269873,0.49192236335093475,0.501327244184387,0.47997387325153024,0.5044572877345819,0.15732034189278288,0.29351330587464514,0.0025903569689184934
0.652,0.63225,0.70025,0.6185,0.7665000000000001,0.591,0.95175,0.8965000000000001,0.85925,0.8142499999999999,0.8059999999999999,0.81875,0.4989831596974454,0.4945483088340231,0.5012630226915942,0.48196104769937453,0.5043306152583389,0.1598513649270752,0.2932193105639825,0.0020533209698661114
0.65275,0.63325,0.7005,0.6182500000000001,0.768,0.5920000000000001,0.9522499999999999,0.8967499999999999,0.8597499999999999,0.81475,0.8057500000000001,0.81875,0.492400456686171,0.49599686028257456,0.4993542172113601,0.48606602767518736,0.5048650148332705,0.15921458988521203,0.29351330587464514,0.0021578612736016536
0.6535,0.63425,0.70075,0.618,0.7695000000000001,0.593,0.9527500000000001,0.897,0.8602500000000001,0.81525,0.8055,0.81875,0.48582845725702867,0.4967282717282717,0.49749536178107606,0.49117647037700546,0.5046908402248707,0.15699893623947564,0.29292484716324085,0.0023738435419752464
0.65425,0.63525,0.701,0.61775,0.7709999999999999,0.594,0.95325,0.89725,0.86075,0.81575,0.80525,0.81875,0.4785714285714286,0.49578992436135294,0.49573283858998146,0.496540257876529,0.5069155255811485,0.1604720550066408,0.29248315297636696,0.0019401032625579301
0.655,0.63625,0.70125,0.6175,0.7725,0.595,0.95375,0.8975,0.86125,0.81625,0.805,0.81875,0.4707649493363779,0.492703724846582,0.49405237619523334,0.5003245981816774,0.5123426496593105,0.15857981910246208,0.2921882233140233,0.0028063297158836677
0.655,0.6367499999999999,0.7015,0.61775,0.77225,0.595,0.9534999999999999,0.8967499999999999,0.861,0.81625,0.8057500000000001,0.8192499999999999,0.46488511488511486,0.48865063507920653,0.49297845012130725,0.4980642861953258,0.5216372425572031,0.1573122974543498,0.29248330839690095,0.0019410996099389088
0.655,0.63725,0.70175,0.618,0.772,0.595,0.95325,0.8959999999999999,0.86075,0.81625,0.8065000000000001,0.81975,0.47742257742257743,0.48450121307264166,0.49301769658912514,0.49194442210170886,0.5332475665337182,0.1573122974543498,0.29248330839690095,0.0019410996099389088
0.655,0.63775,0.7020000000000001,0.6182500000000001,0.7717499999999999,0.595,0.953,0.8952500000000001,0.8604999999999999,0.81625,0.8072499999999999,0.82025,0.46635864135864136,0.4908662765805623,0.5112102183530755,0.47909904114130786,0.5049758529559002,0.15825640527547302,0.2929250025837749,0.00269533797784371
0.655,0.63825,0.7022499999999999,0.6185,0.7715000000000001,0.595,0.9527500000000001,0.8945000000000001,0.8602500000000001,0.81625,0.8079999999999999,0.82075,0.4757242757242757,0.5125838447267018,0.5443163978878265,0.4753067837831771,0.46877523392507786,0.15731028536609937,0.29204130336895895,0.001722881850888673
0.655,0.63875,0.7025,0.61875,0.77125,0.595,0.9525,0.89375,0.86,0.81625,0.80875,0.82125,0.4833452262023691,0.5174860853432282,0.5723419437705152,0.48979890631561457,0.43484680287798794,0.15825841736372342,0.292483463817435,0.002158078225693485
0.655,0.63875,0.7025,0.61875,0.77125,0.595,0.9525,0.89375,0.86,0.81625,0.80875,0.82125,0.4917439703153989,0.5307870700727844,0.6005601541315827,0.498685771990994,0.4006373172084522,0.15762767075747436,0.29263038559097615,0.0016223861054293685
0.65375,0.636,0.7020000000000001,0.6164999999999999,0.7697499999999999,0.59075,0.9515,0.8947499999999999,0.8604999999999999,0.8165,0.809,0.8222499999999999,0.4909483373769088,0.5436599115170544,0.6258206079634652,0.5067136403741058,0.36823687221726964,0.15731430954260023,0.29248315297636696,0.0023695847520095853
0.6525,0.63325,0.7015,0.61425,0.76825,0.5865,0.9505,0.89575,0.861,0.81675,0.80925,0.82325,0.5113672042243471,0.5414442700156986,0.6291815327529613,0.5165584670148067,0.3795305155603872,0.15731430954260023,0.29248315297636696,0.0023695847520095853
0.65125,0.6305,0.701,0.612,0.7667499999999999,0.58225,0.9495,0.8967499999999999,0.8615,0.8170000000000001,0.8095,0.8242499999999999,0.5096689025260454,0.5287141429998573,0.6082239189382046,0.5149790195418268,0.40223259835401126,0.16046401448277633,0.2918937617417585,0.0017242236893751394
0.65,0.62775,0.7005,0.60975,0.7652500000000001,0.578,0.9484999999999999,0.89775,0.862,0.8172499999999999,0.80975,0.82525,0.509483373769088,0.5248965320393891,0.597445411731126,0.4942680701094893,0.4222468493527491,0.17811884796188301,0.3618787432361372,0.02000933092584249
0.64875,0.625,0.7,0.6075,0.76375,0.57375,0.9475,0.89875,0.8625,0.8175,0.81,0.82625,0.5088090480947624,0.5139895818467247,0.5824140145568717,0.4823964843441987,0.44129126462702867,0.1588831277052213,0.3601175671132973,0.02731270004955158
0.64875,0.625,0.7,0.6075,0.76375,0.57375,0.9475,0.89875,0.8625,0.8175,0.81,0.82625,0.5028257456828885,0.5040887683744827,0.5695768517197088,0.47508510747600563,0.4571094908562918,0.15282669901123325,0.3505475294451561,0.04452480644636129
0.64875,0.625,0.7,0.6075,0.76375,0.57375,0.9475,0.89875,0.8625,0.8175,0.81,0.82625,0.49815184815184815,0.4988011988011988,0.5587805052090766,0.4747367582592058,0.471372019873795,0.4063504214064394,0.4232996601825104,0.30247477305559806
0.64875,0.625,0.7,0.6075,0.76375,0.57375,0.9475,0.89875,0.8625,0.8175,0.81,0.82625,0.4962037962037962,0.4891786784643927,0.5571856714713858,0.4768783149770772,0.47997387325153024,0.4593692169099718,0.4329018973283504,0.3600972860514772
0.64,0.617,0.69125,0.6004999999999999,0.7515000000000001,0.56275,0.9384999999999999,0.8859999999999999,0.8554999999999999,0.809,0.8027500000000001,0.8190000000000001,0.4952297702297702,0.49087698016269443,0.5483659197944912,0.4832515239612679,0.4876613092231757,0.5402473980723851,0.4299838694878848,0.4280646345086592
0.63125,0.609,0.6825,0.5935,0.73925,0.55175,0.9295,0.8732500000000001,0.8484999999999999,0.8005,0.7955,0.81175,0.49441273012701586,0.4930854859426288,0.5432424718139004,0.4891813790928716,0.4939276382242766,0.6207049510116796,0.38675260205652334,0.7121917310724657
0.6225,0.601,0.67375,0.5865,0.727,0.5407500000000001,0.9205,0.8604999999999999,0.8415,0.792,0.78825,0.8045,0.4938632795775653,0.4965748537177109,0.5396746111031825,0.4935357452625085,0.4971657034369322,0.5781711669538759,0.33535907238413515,0.7641566340674317
0.61375,0.593,0.665,0.5795,0.71475,0.52975,0.9115000000000001,0.84775,0.8345,0.7835,0.7809999999999999,0.7972499999999999,0.49425217639503355,0.49942557442557445,0.5378050520907663,0.4952458236298762,0.49829388013203685,0.5781711669538759,0.33535907238413515,0.7641566340674317
0.605,0.585,0.65625,0.5725,0.7025,0.51875,0.9025,0.835,0.8275,0.775,0.77375,0.79,0.49449122306265164,0.5009633223918938,0.5368631368631369,0.49761697401746235,0.49986145197910925,0.6390441176263347,0.249486321878548,0.8016129060471271
0.605,0.585,0.65625,0.5725,0.7025,0.51875,0.9025,0.835,0.8275,0.775,0.77375,0.79,0.4954188668474383,0.5012630226915942,0.5390252604538319,0.49893120097396104,0.5016031985893621,0.6931779466734921,0.22651014046485485,0.8193974497195913
0.605,0.585,0.65625,0.5725,0.7025,0.51875,0.9025,0.835,0.8275,0.775,0.77375,0.79,0.4960896246610532,0.5008277436848866,0.5416904524047381,0.49975061358948325,0.5049046000246611,0.7581168931829168,0.22150567423639209,0.8343764954392072
0.60525,0.585,0.6577500000000001,0.57075,0.70325,0.51575,0.9025,0.83525,0.826,0.77375,0.77275,0.79025,0.49625017839303553,0.5012380476666191,0.5441380048522906,0.5011400523171426,0.5097300297013667,0.7581168931829168,0.22150567423639209,0.8343764954392072
0.6054999999999999,0.585,0.65925,0.569,0.7040000000000001,0.51275,0.9025,0.8355,0.8245,0.7725,0.7717499999999999,0.7905,0.4971243042671614,0.5012630226915942,0.5509205080633652,0.5028342967023702,0.5164001271934054,0.8636226078423715,0.23757706986585073,0.8744013700098857
0.60575,0.585,0.6607500000000001,0.56725,0.70475,0.50975,0.9025,0.83575,0.823,0.77125,0.77075,0.7907500000000001,0.4974097331240188,0.5019088054802341,0.5562187812187812,0.5037882987852055,0.5252553251521535,0.8581748084421524,0.2334556811700678,0.8843978606635787
0.606,0.585,0.6622499999999999,0.5655,0.7055,0.5067499999999999,0.9025,0.836,0.8215,0.77,0.7697499999999999,0.7909999999999999,0.4971385757100043,0.5019159412016555,0.5603360924789497,0.503851635023327,0.5352189070613346,0.8581748084421524,0.2334556811700678,0.8843978606635787
0.60625,0.585,0.66375,0.56375,0.70625,0.50375,0.9025,0.83625,0.82,0.76875,0.76875,0.79125,0.49686741829598974,0.5014699586128157,0.5642536035393179,0.5035626634407672,0.5438128428598339,0.8108162951213923,0.21681309313629807,0.8926393836802125
0.60625,0.585,0.66375,0.56375,0.70625,0.50375,0.9025,0.83625,0.82,0.76875,0.76875,0.79125,0.4964892250606536,0.5003567860710718,0.5679356357927786,0.505157944833975,0.554243529254295,0.7335882103716714,0.2248653962637317,0.7893588608930827
0.60625,0.585,0.66375,0.56375,0.70625,0.50375,0.9025,0.83625,0.82,0.76875,0.76875,0.79125,0.49601826744683886,0.5004210075638648,0.5685849864421293,0.5079051542011892,0.5648483900095074,0.7335882103716714,0.2248653962637317,0.7893588608930827
0.60625,0.585,0.66375,0.56375,0.70625,0.50375,0.9025,0.83625,0.82,0.76875,0.76875,0.79125,0.49578992436135294,0.5003996003996004,0.5708612815755673,0.51025651203371,0.5760747372723781,0.6991663440801185,0.22544109952048355,0.7653967771109782
0.613,0.5915,0.66975,0.57025,0.7145,0.5155,0.9107500000000001,0.847,0.8255,0.77625,0.7745000000000001,0.79675,0.49669616098187525,0.5029149422006565,0.5760168403025546,0.5135658303362547,0.5882115444828329,0.5763778326248852,0.24424485762044643,0.6677672217821881
0.61975,0.598,0.6757500000000001,0.57675,0.72275,0.52725,0.919,0.85775,0.831,0.78375,0.7802500000000001,0.8022499999999999,0.49298915370343943,0.5059725988297417,0.5851576994434138,0.5171482861773069,0.602094055700134,0.5312594390034899,0.25144410497694564,0.6264836789076831
0.6265,0.6045,0.68175,0.58325,0.731,0.539,0.9272499999999999,0.8684999999999999,0.8365,0.79125,0.7859999999999999,0.8077500000000001,0.4950406736121022,0.5049058084772371,0.5935493078350221,0.5204061438057255,0.6090412489360018,0.5312594390034899,0.25144410497694564,0.6264836789076831
