C0,C1,C2,C3,C4,C5,C6,C7,C8,C9,C10,C11,Ax,Ay,Az,Gr,Gp,Fx_norm,Fy_norm,Fz_norm
0.63625,0.60625,0.65875,0.59375,0.67125,0.5375,0.8275,0.7725,0.75375,0.69375,0.735,0.63625,0.49257836374748976,0.5045839518030211,0.5885648592799557,0.5049805952475066,0.5009486848050343,0.12495999884291531,0.4818958913347572,0.0038360590092158206
0.63625,0.60625,0.65875,0.59375,0.67125,0.5375,0.8275,0.7725,0.75375,0.69375,0.735,0.63625,0.49244739369597484,0.5045402951191827,0.5886667248755785,0.5049805952896591,0.5009864165712455,0.12495999884291531,0.4818958913347572,0.0038360590092158206
0.6365,0.6065,0.6585,0.5935,0.6709999999999999,0.53775,0.8275,0.7735,0.7555,0.6955,0.7375,0.6409999999999999,0.4924997817165808,0.5045053697721121,0.5887103815594168,0.5050452783066105,0.5009831824216626,0.12495999884291531,0.4818958913347572,0.0038360590092158206
0.6367499999999999,0.60675,0.65825,0.59325,0.6707500000000001,0.5379999999999999,0.8275,0.7745000000000001,0.75725,0.6972499999999999,0.74,0.64575,0.4924386623592072,0.5044704444250415,0.5888675456212347,0.5051358345961005,0.5010866753094845,0.12495999884291531,0.4818958913347572,0.0038360590092158206
0.637,0.607,0.6579999999999999,0.593,0.6705,0.53825,0.8275,0.7755,0.759,0.6990000000000001,0.7425,0.6505,0.4924386623592072,0.504610145813324,0.5889024709683053,0.5052652006805863,0.5012289780175939,0.12495999884291531,0.4818958913347572,0.0038360590092158206
0.63725,0.6072500000000001,0.6577500000000001,0.59275,0.67025,0.5385,0.8275,0.7765000000000001,0.76075,0.70075,0.745,0.6552500000000001,0.49227276696062167,0.5047411158648389,0.5887103815594168,0.5051875810905944,0.5013583441273713,0.12495999884291531,0.4818958913347572,0.0038360590092158206
0.6375,0.6075,0.6575,0.5925,0.67,0.53875,0.8275,0.7775,0.7625,0.7025,0.7475,0.66,0.4922989609709246,0.5048720859163538,0.5885357548240635,0.5050452783066105,0.5013712807509948,0.12495999884291531,0.4818958913347572,0.0038360590092158206
0.6375,0.6075,0.6575,0.5925,0.67,0.53875,0.8275,0.7775,0.7625,0.7025,0.7475,0.66,0.4921156028988038,0.5050292499781717,0.588448441456387,0.5046959898481488,0.5013583441400171,0.12495999884291531,0.4818958913347572,0.0038360590092158206
0.6375,0.6075,0.6575,0.5925,0.67,0.53875,0.8275,0.7775,0.7625,0.7025,0.7475,0.66,0.4919584388369859,0.5050991006723129,0.5882650833842661,0.50432082814244,0.501164294975351,0.12495999884291531,0.4818958913347572,0.0038360590092158206
0.6375,0.60775,0.6577500000000001,0.59275,0.67,0.539,0.8272499999999999,0.77725,0.7647499999999999,0.70375,0.74875,0.6625,0.491853662795774,0.505046712651707,0.5882126953636602,0.5038680467455733,0.5009573092123528,0.12495999884291531,0.4818958913347572,0.0038360590092158206
0.6375,0.608,0.6579999999999999,0.593,0.67,0.53925,0.8270000000000001,0.777,0.767,0.705,0.75,0.665,0.4917401554177945,0.504941936610495,0.5884920981402253,0.5035834412787715,0.5009184993667739,0.12495999884291531,0.4818958913347572,0.0038360590092158206
0.6375,0.6082500000000001,0.65825,0.59325,0.67,0.5395,0.82675,0.7767499999999999,0.76925,0.70625,0.75125,0.6675,0.4919933641840566,0.5049768619575657,0.5887191128961844,0.5034411385959536,0.5009961190326403,0.12495999884291531,0.4818958913347572,0.0038360590092158206
0.6375,0.6085,0.6585,0.5935,0.67,0.5397500000000001,0.8265,0.7765000000000001,0.7715000000000001,0.7075,0.7525,0.67,0.4919759015105213,0.5049593992840303,0.5887365755697197,0.5035575680821075,0.5012807244741506,0.12495999884291531,0.4818958913347572,0.0038360590092158206
0.6375,0.60875,0.65875,0.59375,0.67,0.54,0.82625,0.77625,0.77375,0.70875,0.75375,0.6725,0.4919933641840566,0.5050030559678687,0.5888413516109317,0.5037257440121724,0.5016300129705497,0.12495999884291531,0.4818958913347572,0.0038360590092158206
0.6375,0.60875,0.65875,0.59375,0.67,0.54,0.82625,0.77625,0.77375,0.70875,0.75375,0.6725,0.4919759015105213,0.5051776827032218,0.5889024709683053,0.5038163002510794,0.5019922380652806,0.12495999884291531,0.4818958913347572,0.0038360590092158206
0.6375,0.60875,0.65875,0.59375,0.67,0.54,0.82625,0.77625,0.77375,0.70875,0.75375,0.6725,0.49194970750021827,0.5053610407753427,0.588422247446084,0.5037904270038324,0.5021862872425925,0.12495999884291531,0.4818958913347572,0.0038360590092158206
0.6375,0.60875,0.65875,0.59375,0.67,0.54,0.82625,0.77625,0.77375,0.70875,0.75375,0.6725,0.49155679734567365,0.5054658168165547,0.5882214267004279,0.5037516171582535,0.5020957309531026,0.12495999884291531,0.4818958913347572,0.0038360590092158206
0.6375,0.60875,0.65875,0.59375,0.67,0.54,0.82625,0.77625,0.77375,0.70875,0.75375,0.6725,0.49155679734567365,0.5055356675106959,0.5881865013533571,0.5035187581859456,0.501772315678659,0.12495999884291531,0.4818958913347572,0.0038360590092158206
0.6375,0.60875,0.65875,0.59425,0.66975,0.5397500000000001,0.8272499999999999,0.7765000000000001,0.775,0.70975,0.7545000000000001,0.67475,0.491521871998603,0.5057015629092814,0.5881166506592159,0.5032082795224798,0.5014618370151932,0.12495999884291531,0.4818958913347572,0.0038360590092158206
0.6375,0.60875,0.65875,0.59475,0.6695,0.5395,0.82825,0.7767499999999999,0.77625,0.71075,0.7552500000000001,0.677,0.4915655286824413,0.5056753688989785,0.5881341133327512,0.5029236741062609,0.5010478654765513,0.12495999884291531,0.4818958913347572,0.0038360590092158206
0.6375,0.60875,0.65875,0.59525,0.66925,0.53925,0.8292499999999999,0.777,0.7775,0.71175,0.7559999999999999,0.67925,0.49172269274425917,0.505788876276958,0.588343665415175,0.5023932730561735,0.50071151359113,0.12495999884291531,0.4818958913347572,0.0038360590092158206
0.6375,0.60875,0.65875,0.59575,0.669,0.539,0.83025,0.77725,0.77875,0.7127500000000001,0.7567499999999999,0.6815000000000001,0.49167903606042085,0.5059635030123112,0.5881603073430542,0.5016041397865314,0.5005045278281319,0.12495999884291531,0.4818958913347572,0.0038360590092158206
0.6375,0.60875,0.65875,0.59625,0.66875,0.53875,0.83125,0.7775,0.78,0.71375,0.7575,0.68375,0.4916266480398149,0.5060246223696848,0.5880206059547717,0.501099611933108,0.49997412677804454,0.1229953736669294,0.4818969116566585,0.004575254343934704
0.6375,0.60875,0.65875,0.59625,0.66875,0.53875,0.83125,0.7775,0.78,0.71375,0.7575,0.68375,0.4916179167030472,0.5057801449401903,0.5879682179341658,0.5002587322322005,0.4997153945584897,0.12742983366483035,0.47947897682239765,0.004869238350678426
0.63725,0.60875,0.6585,0.59625,0.6685,0.53875,0.83075,0.777,0.782,0.7142499999999999,0.75725,0.68325,0.4917314240810268,0.5057452195931197,0.5881341133327512,0.4993661060873822,0.49961190167066777,0.12742983366483035,0.47947897682239765,0.004869238350678426
0.637,0.60875,0.65825,0.59625,0.66825,0.53875,0.83025,0.7765000000000001,0.784,0.71475,0.757,0.6827500000000001,0.49167903606042085,0.5055967868680695,0.588011874618004,0.4986675290819384,0.4994307891169794,0.12399017474712623,0.4818958913347572,0.002810039183431911
0.6367499999999999,0.60875,0.6579999999999999,0.59625,0.6679999999999999,0.53875,0.82975,0.7759999999999999,0.7859999999999999,0.71525,0.7567499999999999,0.6822499999999999,0.49182746878547107,0.5054483541430193,0.5881166506592159,0.49790426908483465,0.49932729622915745,0.12496936369278693,0.48141107638048725,0.0032468682762584224
0.6365,0.60875,0.6577500000000001,0.59625,0.6677500000000001,0.53875,0.8292499999999999,0.7755,0.7879999999999999,0.71575,0.7565000000000001,0.68175,0.4918362001222387,0.5053173840915044,0.5882388893739632,0.49675291073310723,0.49965071150360096,0.1229953736669294,0.4809288182328643,0.0023612760135870324
0.63625,0.60875,0.6575,0.59625,0.6675,0.53875,0.82875,0.775,0.79,0.71625,0.75625,0.68125,0.4919671701737536,0.5053610407753427,0.5884920981402253,0.49601552392002174,0.4997412677804452,0.1200546710333647,0.480927797910963,0.0038381713175847623
0.63625,0.60875,0.6575,0.59625,0.6675,0.53875,0.82875,0.775,0.79,0.71625,0.75625,0.68125,0.491853662795774,0.5052824587444338,0.5885008294769929,0.4954333763880861,0.49998706338902227,0.12447352497385464,0.4838300315366495,0.00339936949623747
0.63625,0.60875,0.6575,0.59625,0.6675,0.53875,0.82875,0.775,0.79,0.71625,0.75625,0.68125,0.4918449314590064,0.5052649960708985,0.588780232253558,0.49499353158955145,0.50040103494031,0.12299849123213653,0.48431484048902584,0.0032468589709352146
0.63625,0.60875,0.6575,0.59625,0.6675,0.53875,0.82875,0.775,0.79,0.71625,0.75625,0.68125,0.49176634942809744,0.5049244739369597,0.5889461276521435,0.4949029753000615,0.5010737386985068,0.12299849123213653,0.48431484048902584,0.0032468589709352146
0.636,0.6085,0.657,0.59575,0.6672499999999999,0.5385,0.8284999999999999,0.775,0.7905,0.71625,0.75725,0.6815000000000001,0.49178381210163274,0.5047411158648389,0.5890596350301232,0.4950582145812114,0.5016817593891691,0.12005154739103244,0.4814136271852407,0.0026590640364594917
0.63575,0.6082500000000001,0.6565000000000001,0.59525,0.667,0.53825,0.82825,0.775,0.7909999999999999,0.71625,0.75825,0.68175,0.4916528420501179,0.5045839518030211,0.5889112023050729,0.495653298660896,0.5021216041497666,0.1259485587155728,0.4809288182328643,0.00368935221400038
0.6355,0.608,0.6559999999999999,0.59475,0.66675,0.5379999999999999,0.828,0.775,0.7915000000000001,0.71625,0.75925,0.682,0.49146075264122935,0.5044355190779708,0.5887453069064874,0.4965329882326739,0.5022250970375884,0.12348184753599008,0.4789951821900292,0.0036911909458669117
0.63525,0.60775,0.6555,0.59425,0.6665000000000001,0.53775,0.8277500000000001,0.775,0.792,0.71625,0.7602500000000001,0.6822499999999999,0.49126866323234086,0.5042783550161529,0.5884397101196193,0.497490297482964,0.5019534282070559,0.12348184753599008,0.4789951821900292,0.0036911909458669117
0.635,0.6075,0.655,0.59375,0.66625,0.5375,0.8275,0.775,0.7925,0.71625,0.76125,0.6825,0.49112023050729064,0.5043743997205973,0.5882650833842661,0.4984217334354241,0.5014618370025475,0.12447040740864752,0.48092932839381497,0.003243966876481171
0.635,0.6075,0.655,0.59375,0.66625,0.5375,0.8275,0.775,0.7925,0.71625,0.76125,0.6825,0.49089321575133155,0.5045228324456474,0.5880991879856806,0.49944372572795714,0.5005045278154862,0.12447040740864752,0.48431382016712454,0.004872899995362032
0.635,0.6075,0.655,0.59375,0.66625,0.5375,0.8275,0.775,0.7925,0.71625,0.76125,0.6825,0.4908320963939579,0.5046799965074653,0.5881341133327512,0.5000646830548887,0.4993661060494449,0.12153282841741511,0.4833467530671251,0.005307753568070814
0.635,0.6075,0.655,0.59375,0.66625,0.5375,0.8275,0.775,0.7925,0.71625,0.76125,0.6825,0.4908146337204226,0.5047149218545359,0.5882214267004279,0.5002328589975994,0.49816300119057777,0.12594231750803347,0.48189537517191294,0.0033940059079385367
0.635,0.6075,0.6547499999999999,0.59275,0.6659999999999999,0.53775,0.82575,0.774,0.7909999999999999,0.71575,0.7609999999999999,0.6827500000000001,0.4907971710468873,0.5046887278442329,0.5883000087313368,0.5002199223866216,0.4969598963443564,0.12594231750803347,0.48189537517191294,0.0033940059079385367
0.635,0.6075,0.6545000000000001,0.59175,0.6657500000000001,0.5379999999999999,0.8240000000000001,0.773,0.7895,0.71525,0.76075,0.6829999999999999,0.49077970837335194,0.50466253383393,0.5883785907622457,0.5002069857756438,0.49575679149813495,0.1259485587155728,0.4828619381128552,0.0038403040976647635
0.635,0.6075,0.65425,0.59075,0.6655,0.53825,0.8222499999999999,0.772,0.7879999999999999,0.71475,0.7605,0.68325,0.4909368724351698,0.5045926831397887,0.5882825460578014,0.49975420439142293,0.494243207975802,0.1259485587155728,0.4828619381128552,0.0038403040976647635
0.635,0.6075,0.654,0.58975,0.66525,0.5385,0.8205,0.7709999999999999,0.7865000000000001,0.7142499999999999,0.7602500000000001,0.6835,0.491111499170523,0.5046538024971623,0.5881253819959835,0.49927554979789224,0.49283311744245695,0.12250889979786873,0.4843143303280752,0.003985944502840204
0.635,0.6075,0.65375,0.58875,0.665,0.53875,0.81875,0.77,0.785,0.71375,0.76,0.68375,0.49160918536627957,0.5046450711603947,0.5882388893739632,0.4990038809673597,0.49182406176090165,0.1283996638377446,0.4818958913347572,0.0032488382131822336
0.635,0.6075,0.65375,0.58875,0.665,0.53875,0.81875,0.77,0.785,0.71375,0.76,0.68375,0.4919671701737536,0.5045839518030211,0.5886317995285079,0.49892626130149326,0.49134540721795394,0.12447352497385464,0.4833477733890265,0.0036921140339294632
0.635,0.6075,0.65375,0.58875,0.665,0.53875,0.81875,0.77,0.785,0.71375,0.76,0.68375,0.492290229634157,0.5044791757618091,0.5890421723565877,0.49892626130149326,0.49120310453513605,0.1259485587155728,0.4828634685957072,0.0031056720934486593
0.635,0.6075,0.65375,0.58875,0.665,0.53875,0.81875,0.77,0.785,0.71375,0.76,0.68375,0.4925696324107221,0.5043743997205973,0.5894700078582031,0.4993014230198477,0.4921345405255334,0.1259485587155728,0.4828634685957072,0.0031056720934486593
0.635,0.60775,0.65425,0.58875,0.6657500000000001,0.53875,0.821,0.7709999999999999,0.78325,0.7127500000000001,0.759,0.682,0.49264821444163104,0.5042172356587794,0.5899153060333537,0.4997412677804452,0.4934928846149675,0.12446728376631531,0.4838290112147481,0.004576330969830244
0.635,0.608,0.6547499999999999,0.58875,0.6665000000000001,0.53875,0.82325,0.772,0.7815000000000001,0.71175,0.758,0.68025,0.4924997817165808,0.5042172356587794,0.590037544748101,0.5000905562768442,0.4946313064315917,0.1230109797243404,0.48383054169760015,0.002805607988518736
0.635,0.6082500000000001,0.6552500000000001,0.58875,0.6672499999999999,0.53875,0.8255,0.773,0.7797499999999999,0.71075,0.757,0.6785,0.49255216973718674,0.5042434296690823,0.5896970226141622,0.5002846054415103,0.49561448881531706,0.1249631224852476,0.48141209670238866,0.0036941025814996964
0.635,0.6085,0.65575,0.58875,0.6679999999999999,0.53875,0.8277500000000001,0.774,0.778,0.70975,0.7559999999999999,0.67675,0.4925434384004191,0.5044704444250415,0.5890945603771938,0.5004657179951987,0.49619663629666966,0.1249631224852476,0.48141209670238866,0.0036941025814996964
0.635,0.60875,0.65625,0.58875,0.66875,0.53875,0.83,0.775,0.77625,0.70875,0.755,0.675,0.49237754300183356,0.5048196978957479,0.5883611280887104,0.5003363518854212,0.49615782650167367,0.12446728376631531,0.4814126068633393,0.0033943250805246786
0.635,0.60875,0.65625,0.58875,0.66875,0.53875,0.83,0.775,0.77625,0.70875,0.755,0.675,0.49230769230769234,0.5050292499781717,0.587601501789924,0.4992238033033983,0.4950711512807094,0.12152658113275058,0.4828619381128552,0.0032445726530222247
0.6355,0.60925,0.65675,0.5892499999999999,0.67,0.5397500000000001,0.8322499999999999,0.7759999999999999,0.7767499999999999,0.708,0.7545000000000001,0.67325,0.49283157251375187,0.5050117873046364,0.5881603073430542,0.4983441137442662,0.4963001293362405,0.12495999884291531,0.48092830807191367,0.003100041442373561
0.636,0.60975,0.6572499999999999,0.58975,0.67125,0.5407500000000001,0.8345,0.777,0.77725,0.7072499999999999,0.754,0.6715000000000001,0.4929101545446608,0.504968130620798,0.5886579935388108,0.49746442418513404,0.4979948253363874,0.12495999884291531,0.48092830807191367,0.003100041442373561
0.6365,0.61025,0.6577500000000001,0.5902499999999999,0.6725,0.54175,0.83675,0.778,0.77775,0.7065,0.7535,0.66975,0.4929538112284991,0.5046450711603947,0.5887278442329521,0.4969210865240689,0.49988357056442906,0.12495999884291531,0.48092830807191367,0.003100041442373561
0.637,0.61075,0.65825,0.59075,0.67375,0.54275,0.8390000000000001,0.779,0.77825,0.70575,0.753,0.6679999999999999,0.4931197066270846,0.5044005937309002,0.5889985156727495,0.49662354447158086,0.5018887452280417,0.12496624612757985,0.4818938446890609,0.003542064766616558
0.6375,0.61125,0.65875,0.59125,0.675,0.54375,0.84125,0.78,0.77875,0.705,0.7525,0.66625,0.4930498559329433,0.5043831310573649,0.5890334410198201,0.49699870622787257,0.5043984476818489,0.12496624612757985,0.4818938446890609,0.003542064766616558
0.6375,0.61125,0.65875,0.59125,0.675,0.54375,0.84125,0.78,0.77875,0.705,0.7525,0.66625,0.4923862743386012,0.5045926831397887,0.5877499345149743,0.49714100896127345,0.5045924968591609,0.12250577615553646,0.4804440032785944,0.0035445167192827143
0.6375,0.61125,0.65875,0.59125,0.675,0.54375,0.84125,0.78,0.77875,0.705,0.7525,0.66625,0.4921592595826421,0.5048022352222126,0.5868156814808347,0.4969469597839616,0.503686934141302,0.12544959635430827,0.4823791698042816,0.004721785268541452
0.6375,0.61125,0.65875,0.59125,0.675,0.54375,0.84125,0.78,0.77875,0.705,0.7525,0.66625,0.4919584388369859,0.5048109665589802,0.5868768008382084,0.49602846039189624,0.5022897801304145,0.12790694268401942,0.48431382016712454,0.004431198635302134
0.637,0.6104999999999999,0.65825,0.591,0.67475,0.54225,0.843,0.78,0.7805,0.70375,0.7525,0.6655,0.4918449314590064,0.5047673098751418,0.5871736662883087,0.49470892612274964,0.5007244502147535,0.1225026525132042,0.4804455397633399,0.0044250627051766744
0.6365,0.60975,0.6577500000000001,0.59075,0.6745,0.5407500000000001,0.8447499999999999,0.78,0.7822499999999999,0.7025,0.7525,0.66475,0.49187112546930933,0.5044529817515061,0.587732471841439,0.4933376452832346,0.4992626131363315,0.12249952887087198,0.48092830807191367,0.0032519294415529983
0.636,0.609,0.6572499999999999,0.5905,0.67425,0.53925,0.8465,0.78,0.784,0.70125,0.7525,0.664,0.49187112546930933,0.504199772985244,0.5883873220990133,0.49196636444371955,0.49764553677675966,0.12249952887087198,0.48092830807191367,0.0032519294415529983
0.6355,0.6082500000000001,0.65675,0.5902499999999999,0.674,0.53775,0.8482500000000001,0.78,0.7857500000000001,0.7,0.7525,0.66325,0.49212433423557145,0.50384178817777,0.58888500829477,0.49122897763063406,0.49688227674171864,0.1249631224852476,0.47947897682239765,0.003096832966930338
0.635,0.6075,0.65625,0.59,0.67375,0.53625,0.85,0.78,0.7875,0.69875,0.7525,0.6625,0.4924735877062778,0.5036846241159522,0.5891294857242644,0.4909314355655003,0.49949547220980534,0.12054114490242537,0.4804455397633399,0.0023632906160622573
0.635,0.6075,0.65625,0.59,0.67375,0.53625,0.85,0.78,0.7875,0.69875,0.7525,0.6625,0.492290229634157,0.503405221339387,0.588858814284467,0.4908279425765124,0.5026261320411272,0.12250577615553646,0.4809288182328643,0.003691960496096481
0.635,0.6075,0.65625,0.59,0.67375,0.53625,0.85,0.78,0.7875,0.69875,0.7525,0.6625,0.4921330655723391,0.5034488780232254,0.588343665415175,0.49055627391037454,0.5056403623862951,0.12300161487446878,0.48334726322807575,0.003244123205911123
0.635,0.60775,0.6555,0.5905,0.6745,0.53675,0.8515,0.7805,0.78825,0.6990000000000001,0.75425,0.66325,0.4920806775517332,0.5033353706452458,0.5879245612503274,0.4895989648244791,0.5081500648906854,0.12593919386570118,0.4799617451309714,0.0035406894398459484
0.635,0.608,0.6547499999999999,0.591,0.67525,0.53725,0.853,0.7809999999999999,0.789,0.6992499999999999,0.7559999999999999,0.664,0.4915655286824413,0.5032480572775692,0.5876975464943683,0.48838292336728,0.5098188876435853,0.12447040740864752,0.48286244827380587,0.0038354420662869153
0.635,0.6082500000000001,0.654,0.5915,0.6759999999999999,0.53775,0.8545,0.7815000000000001,0.78975,0.6995,0.75775,0.66475,0.49092814109840216,0.5033528333187811,0.5874792630751768,0.486985769331101,0.5080336352527826,0.12447040740864752,0.48286244827380587,0.0038354420662869153
0.635,0.6085,0.65325,0.5920000000000001,0.67675,0.53825,0.856,0.782,0.7905,0.69975,0.7595000000000001,0.6655,0.490727320352746,0.50343141534969,0.5875840391163887,0.4857697278739018,0.5061448900753238,0.1259485587155728,0.48431382016712454,0.003833430255408653
0.635,0.60875,0.6525,0.5925,0.6775,0.53875,0.8575,0.7825,0.79125,0.7,0.76125,0.66625,0.4908582904042609,0.5029861171745394,0.5879769492709334,0.4851228971479743,0.5041785252572901,0.1230109797243404,0.4814105662195366,0.003100041442373561
0.635,0.60875,0.6525,0.5925,0.6775,0.53875,0.8575,0.7825,0.79125,0.7,0.76125,0.66625,0.4909019470880992,0.5025670130096918,0.588011874618004,0.4852263899346303,0.5028589909375606,0.1230109797243404,0.4814105662195366,0.003100041442373561
0.635,0.60875,0.65275,0.5925,0.6777500000000001,0.539,0.85875,0.78325,0.794,0.7020000000000001,0.76125,0.669,0.49108530516022003,0.5022614162228237,0.5880467999650747,0.4853428194207842,0.5020051746636126,0.12103698362135765,0.4857641717385418,0.003099271892143992
0.635,0.60875,0.653,0.5925,0.6779999999999999,0.53925,0.86,0.784,0.79675,0.7040000000000001,0.76125,0.67175,0.49108530516022003,0.5018073867109054,0.5879507552606305,0.48553686869926205,0.5011254851424177,0.12103698362135765,0.4857641717385418,0.003099271892143992
0.635,0.60875,0.65325,0.5925,0.67825,0.5395,0.86125,0.78475,0.7995,0.706,0.76125,0.6745,0.491111499170523,0.5012835065048459,0.5878721732297214,0.48565329818541597,0.4999611901797125,0.12447352497385464,0.4833457267433302,0.0036902743715306052
0.635,0.60875,0.6535,0.5925,0.6785,0.5397500000000001,0.8625,0.7855,0.8022499999999999,0.708,0.76125,0.6772499999999999,0.4910241858028464,0.5010215664018162,0.5877499345149743,0.4858344107643958,0.49901681754040017,0.12495999884291531,0.48383054169760015,0.005020793219286901
0.635,0.60875,0.65375,0.5925,0.67875,0.54,0.86375,0.78625,0.805,0.71,0.76125,0.68,0.49098052911900814,0.5007247009517157,0.5873832183707326,0.4859379037533837,0.49791720564522945,0.12349121238586173,0.479476936178595,0.0033937090681280986
0.635,0.60875,0.65375,0.5925,0.67875,0.54,0.86375,0.78625,0.805,0.71,0.76125,0.68,0.4910241858028464,0.5004889548589889,0.5874618004016415,0.4859637769500477,0.49642949539543496,0.125446472711976,0.4818958913347572,0.0038369616255673057
0.635,0.60875,0.65375,0.5925,0.67875,0.54,0.86375,0.78625,0.805,0.71,0.76125,0.68,0.49144328996769404,0.5004191041648476,0.5880467999650747,0.48608020643620165,0.49569210860764096,0.125446472711976,0.4818958913347572,0.0038369616255673057
0.635,0.60875,0.65375,0.5925,0.67875,0.54,0.86375,0.78625,0.805,0.71,0.76125,0.68,0.4919409761634506,0.5002444774294944,0.5884397101196193,0.48675291035879314,0.4954333763880861,0.12447352497385464,0.48238070028713353,0.003395257473910444
0.6345000000000001,0.60675,0.653,0.58975,0.67925,0.5397500000000001,0.8654999999999999,0.7872499999999999,0.8029999999999999,0.7090000000000001,0.7605,0.67875,0.49198463284728894,0.5000174626735353,0.5884920981402253,0.4871539454129148,0.4953169469019322,0.12201305500181127,0.481414647507142,0.0023648166890688923
0.634,0.60475,0.65225,0.5870000000000001,0.67975,0.5395,0.86725,0.78825,0.8009999999999999,0.708,0.7597499999999999,0.6775,0.4919671701737536,0.4998952239587881,0.5891294857242644,0.4875420437675385,0.49479948246282257,0.1249631224852476,0.4823801901261829,0.003243670036670733
0.6335000000000001,0.60275,0.6515000000000001,0.5842499999999999,0.68025,0.53925,0.8690000000000001,0.78925,0.799,0.7070000000000001,0.759,0.67625,0.49194970750021827,0.49973805989697023,0.5894525451846677,0.48798188851549024,0.49486416545448253,0.1249631224852476,0.4823801901261829,0.003243670036670733
0.633,0.60075,0.65075,0.5815,0.6807500000000001,0.539,0.87075,0.79025,0.797,0.706,0.75825,0.675,0.4918362001222387,0.49945865712040516,0.5891469483977997,0.4887451485252397,0.4945278134931868,0.12349433602819394,0.4765782736795631,0.0030995817594069264
0.6325,0.59875,0.65,0.57875,0.68125,0.53875,0.8725,0.79125,0.795,0.705,0.7575,0.67375,0.4917576180913298,0.4993014930585873,0.5892517244390116,0.49001293637576687,0.49412677859081405,0.12349433602819394,0.4765782736795631,0.0030995817594069264
0.6325,0.59875,0.65,0.57875,0.68125,0.53875,0.8725,0.79125,0.795,0.705,0.7575,0.67375,0.4920981402252685,0.4991879856806077,0.5897668733083035,0.49183699846039963,0.49375161683452234,0.12397768625492236,0.48141209670238866,0.003541754899353631
0.6317499999999999,0.59875,0.6497499999999999,0.5785,0.6807500000000001,0.5379999999999999,0.87,0.79,0.797,0.7034999999999999,0.75825,0.67325,0.49216799091940977,0.4990308216187898,0.5901685147996159,0.4943725741361624,0.4946183697320937,0.12495999884291531,0.48092932839381497,0.005456713182035683
0.631,0.59875,0.6495000000000001,0.57825,0.68025,0.53725,0.8675,0.78875,0.799,0.7020000000000001,0.759,0.6727500000000001,0.4923950056753689,0.4990570156290928,0.5905963503012311,0.497141008986565,0.4957956013816512,0.1249631224852476,0.4843143303280752,0.0028068372217149337
0.63025,0.59875,0.64925,0.578,0.67975,0.5365,0.865,0.7875,0.8009999999999999,0.7005,0.7597499999999999,0.6722499999999999,0.4927617218196106,0.49910940364969875,0.5913472452632498,0.5000905563400729,0.4977102198569398,0.12496624612757985,0.4818979319785599,0.0033943353163802116
0.6295000000000001,0.59875,0.649,0.57775,0.67925,0.5357500000000001,0.8625,0.78625,0.8029999999999999,0.6990000000000001,0.7605,0.67175,0.4931720946476906,0.4994062690997992,0.5919671701737536,0.5026908151339531,0.500439844735306,0.12496624612757985,0.4818979319785599,0.0033943353163802116
0.62875,0.59875,0.64875,0.5775,0.67875,0.535,0.86,0.785,0.805,0.6975,0.76125,0.67125,0.49338164673011436,0.5000174626735353,0.5926220204313281,0.5052393275345054,0.504670116537673,0.12102137756394671,0.4847991452823451,0.004133530651099101
0.62875,0.59875,0.64875,0.5775,0.67875,0.535,0.86,0.785,0.805,0.6975,0.76125,0.67125,0.49406269099799177,0.5004540295119183,0.5938182135684973,0.5072445022234094,0.5086804659660643,0.12347560025132559,0.4809288182328643,0.0023603761888325104
0.62875,0.59875,0.64875,0.5775,0.67875,0.535,0.86,0.785,0.805,0.6975,0.76125,0.67125,0.4951279140836462,0.4987776128525277,0.5954073168602113,0.5081759382390983,0.5137904273781465,0.12202554349401513,0.48431484048902584,0.003392332810825164
0.62875,0.59875,0.64875,0.5775,0.67875,0.535,0.86,0.785,0.805,0.6975,0.76125,0.67125,0.49567798830000875,0.49714485287697546,0.5977560464507116,0.5069081503379882,0.5197283316778264,0.12202554349401513,0.48431484048902584,0.003392332810825164
0.62875,0.59875,0.64875,0.5775,0.67875,0.535,0.86,0.785,0.805,0.6975,0.76125,0.67125,0.49648127128263336,0.49791321051252946,0.603509997380599,0.502936610704593,0.5277231570344469,0.125446472711976,0.4814141373461914,0.002510095117171415
0.631,0.6004999999999999,0.6509999999999999,0.5775,0.6807500000000001,0.53525,0.86425,0.7872499999999999,0.8075,0.7020000000000001,0.76375,0.67875,0.4968479874268751,0.5052126080502926,0.6176023749236008,0.4922380336662703,0.5512936626658467,0.125446472711976,0.4814141373461914,0.002510095117171415
0.63325,0.6022500000000001,0.65325,0.5775,0.6827500000000001,0.5355,0.8684999999999999,0.7895,0.81,0.7065,0.76625,0.68625,0.49676067405919844,0.5098664105474549,0.633528333187811,0.4788227681455815,0.5817723166624981,0.1239808098972546,0.48479812496044367,0.0047197929988419375
0.6355,0.604,0.6555,0.5775,0.68475,0.5357500000000001,0.87275,0.79175,0.8125,0.711,0.76875,0.69375,0.4956430629529381,0.5168340172880468,0.6443202654326378,0.4617981882506232,0.6172056941937597,0.1229953736669294,0.4799627654528727,0.0035406894398459484
0.63775,0.60575,0.6577500000000001,0.5775,0.68675,0.536,0.877,0.794,0.815,0.7155,0.77125,0.70125,0.4937134375272854,0.526717890509037,0.6546232428184755,0.4422639056995256,0.6535187628395802,0.12348496510119719,0.4814126068633393,0.00368706589608739
0.64,0.6075,0.66,0.5775,0.68875,0.53625,0.88125,0.79625,0.8175,0.72,0.77375,0.70875,0.490753514363049,0.5359294507989173,0.6607613725661399,0.4168822758969828,0.689353176841287,0.12348496510119719,0.48479812496044367,0.0032514660364570754
0.64,0.6075,0.66,0.5775,0.68875,0.53625,0.88125,0.79625,0.8175,0.72,0.77375,0.70875,0.481096655898018,0.5427049681306209,0.6520824238190868,0.38829236586379845,0.7051229054840502,0.1254527199966405,0.4804450236004958,0.0030965137943441967
0.64,0.6075,0.66,0.5775,0.68875,0.53625,0.88125,0.79625,0.8175,0.72,0.77375,0.70875,0.4674146511830961,0.5560726447219069,0.6353968392560901,0.3552781345474372,0.7026520148991413,0.12495999884291531,0.47947795650049635,0.003536883562652568
0.6425,0.61175,0.6627500000000001,0.5802499999999999,0.6920000000000001,0.54,0.8867499999999999,0.7995,0.82125,0.72775,0.7767499999999999,0.71475,0.4405046712651707,0.5839343403475072,0.607456561599581,0.33069857384147805,0.6821474858039056,0.11416078335115654,0.47705696070053144,0.0020683258282520735
0.645,0.616,0.6655,0.583,0.69525,0.54375,0.89225,0.8027500000000001,0.825,0.7354999999999999,0.7797499999999999,0.72075,0.41481707849471755,0.6088448441456387,0.5790971797782241,0.3102199189545661,0.6593143653669359,0.11907547601057882,0.47996021464811933,0.0011840958648987965
0.6475,0.62025,0.66825,0.58575,0.6984999999999999,0.5475,0.89775,0.8059999999999999,0.82875,0.7432500000000001,0.7827500000000001,0.72675,0.35726883785907626,0.6067667859949358,0.5446171308827381,0.2806726996331544,0.6050194078414277,0.11907547601057882,0.47996021464811933,0.0011840958648987965
0.65,0.6245,0.6709999999999999,0.5885,0.70175,0.55125,0.90325,0.80925,0.8325,0.7509999999999999,0.7857500000000001,0.73275,0.29008993276870687,0.6092814109840217,0.544058325329608,0.2541008993444251,0.5518369999981223,0.11562956980821017,0.47608988759863846,0.0017711631230994014
0.6525,0.62875,0.67375,0.59125,0.705,0.555,0.90875,0.8125,0.83625,0.75875,0.78875,0.73875,0.24915742600192087,0.6237492360080328,0.5298699030821619,0.2552651950152921,0.5057956000993725,0.11562956980821017,0.47608988759863846,0.0017711631230994014
0.6525,0.62875,0.67375,0.59125,0.705,0.555,0.90875,0.8125,0.83625,0.75875,0.78875,0.73875,0.23028027591024186,0.621592595826421,0.5372915393346721,0.2597412630964608,0.47410090403852606,0.11711085083459284,0.4789936517071771,0.0007428681457903471
0.6525,0.62875,0.67375,0.59125,0.705,0.555,0.90875,0.8125,0.83625,0.75875,0.78875,0.73875,0.22766087487994413,0.615009167903606,0.5468436217584912,0.27645536392328945,0.4395989623964959,0.126441279869298,0.48141107638048725,0.003253654648476349
0.6525,0.62875,0.67375,0.59125,0.705,0.555,0.90875,0.8125,0.83625,0.75875,0.78875,0.73875,0.26424517593643587,0.6286300532611543,0.566672487557845,0.32063388961559325,0.4299223767275667,0.12595168235790508,0.479478466661447,0.0020734809773110775
0.65275,0.631,0.675,0.59475,0.70575,0.557,0.912,0.816,0.8375,0.7609999999999999,0.79,0.7404999999999999,0.32556535405570597,0.6256963241072209,0.5595302540818999,0.37635187356461675,0.42116429146236267,0.1254527199966405,0.48189742181760925,0.002509114336104954
0.653,0.63325,0.67625,0.5982500000000001,0.7065,0.5589999999999999,0.91525,0.8195,0.83875,0.76325,0.79125,0.74225,0.3706015891032917,0.6039902209028202,0.5704356937047061,0.40927554757982837,0.41764553347874905,0.1254527199966405,0.48189742181760925,0.002509114336104954
0.65325,0.6355,0.6775,0.60175,0.7072499999999999,0.561,0.9185,0.823,0.84,0.7655,0.7925,0.7440000000000001,0.41112372304199774,0.5851741901685148,0.5785121802147909,0.43086674972095995,0.4152522606628446,0.12495999884291531,0.4818979319785599,0.003836554052410655
0.6535,0.63775,0.67875,0.60525,0.708,0.563,0.92175,0.8265,0.84125,0.76775,0.79375,0.74575,0.4353881079193225,0.5707849471754125,0.5844582205535668,0.44021991911643166,0.415666233428124,0.1210307424138183,0.4770605318271862,0.002658154906381762
0.65375,0.64,0.68,0.60875,0.70875,0.565,0.925,0.83,0.8425,0.77,0.795,0.7475,0.4579236881166507,0.562167117785733,0.5873657556971973,0.44609314022211966,0.4286545915073548,0.12054426854475762,0.47899416186812777,0.0016222137449900657
0.65375,0.64,0.68,0.60875,0.70875,0.565,0.925,0.83,0.8425,0.77,0.795,0.7475,0.47251375185540906,0.5611542827206846,0.5896184405832533,0.44697283012268696,0.4426131943603193,0.12054426854475762,0.47899416186812777,0.0016222137449900657
0.65425,0.64075,0.6805,0.61,0.70975,0.5660000000000001,0.9259999999999999,0.83125,0.84325,0.77075,0.7957500000000001,0.7482500000000001,0.4835938182135685,0.5525888413516109,0.5898891120230507,0.46487710001937854,0.4672703752632662,0.11907235844537174,0.4804450236004958,0.0013366417504292651
0.6547499999999999,0.6415000000000001,0.6809999999999999,0.61125,0.71075,0.5670000000000001,0.927,0.8325,0.8440000000000001,0.7715000000000001,0.7965000000000001,0.7490000000000001,0.49560813760586747,0.541727058412643,0.5880031432812364,0.4877619656356845,0.48794307902399214,0.11907235844537174,0.4804450236004958,0.0013366417504292651
0.6552500000000001,0.64225,0.6815000000000001,0.6125,0.71175,0.568,0.9279999999999999,0.83375,0.8447499999999999,0.77225,0.7972499999999999,0.7497499999999999,0.5102156640181612,0.5298873657556972,0.5863703833056841,0.5131435968545509,0.5064036225477936,0.11907235844537174,0.4804450236004958,0.0013366417504292651
0.65575,0.643,0.682,0.61375,0.7127500000000001,0.569,0.929,0.835,0.8454999999999999,0.773,0.7979999999999999,0.7505,0.5211036409674321,0.5150266305771414,0.5845193399109404,0.5360155245573673,0.5144243212022441,0.12152658113275058,0.4780276049290791,0.0028034752084387287
0.65625,0.64375,0.6825,0.615,0.71375,0.57,0.93,0.83625,0.84625,0.77375,0.79875,0.75125,0.5327250502051865,0.498052911900812,0.5824849384440758,0.5632600267453687,0.5212936614923214,0.12349433602819394,0.4789946720290785,0.002804222425892587
0.65625,0.64375,0.6825,0.615,0.71375,0.57,0.93,0.83625,0.84625,0.77375,0.79875,0.75125,0.542469222037894,0.48915567973456736,0.5831048633545796,0.5784346712578643,0.5153557572432245,0.1200546710333647,0.4751243449795976,0.00206822812235835
0.657,0.644,0.68325,0.61575,0.7140000000000001,0.5705,0.9305,0.8365,0.84775,0.77375,0.799,0.7515000000000001,0.5478913821706103,0.4806688203964027,0.582659565179429,0.5945924984575832,0.5083182409724992,0.12055050975229697,0.47802555828338283,0.0005899500473314341
0.6577500000000001,0.64425,0.684,0.6164999999999999,0.7142499999999999,0.5710000000000001,0.9309999999999999,0.83675,0.84925,0.77375,0.79925,0.7517499999999999,0.5498908582904043,0.4728630053261154,0.5811577752553916,0.6118240632176917,0.5024062095659854,0.12055050975229697,0.47802555828338283,0.0005899500473314341
0.6585,0.6445000000000001,0.68475,0.61725,0.7145,0.5715,0.9315000000000001,0.8370000000000001,0.85075,0.77375,0.7995,0.752,0.5476556360778835,0.46626211472976514,0.5798044180564045,0.6293919821647471,0.4987580852955539,0.11857963729164653,0.47609294856434253,0.0010328927375077076
0.65925,0.6447499999999999,0.6855,0.618,0.71475,0.5720000000000001,0.932,0.8372499999999999,0.85225,0.77375,0.79975,0.75225,0.5445385488518292,0.4599493582467476,0.5790971797782241,0.6448900421413725,0.49628719258615955,0.12054114490242537,0.47947744633954564,0.0038345096729011496
0.66,0.645,0.68625,0.61875,0.715,0.5725,0.9325,0.8375,0.85375,0.77375,0.8,0.7525,0.5411507901859774,0.4562036147734218,0.578870165022265,0.6574903008543199,0.49442432055478186,0.12153906962495445,0.47850884275480066,0.001621299962250722
0.66,0.645,0.68625,0.61875,0.715,0.5725,0.9325,0.8375,0.85375,0.77375,0.8,0.7525,0.5364445996682092,0.4485113070811141,0.5814109840216537,0.6654333785024549,0.491345407015622,0.12054114490242537,0.47899212122432505,0.001770272603668087
0.66,0.645,0.68625,0.61875,0.715,0.5725,0.9325,0.8375,0.85375,0.77375,0.8,0.7525,0.5325678861433686,0.44111586483890686,0.5847550860036672,0.6698059529876399,0.4893531688491754,0.12054114490242537,0.47899212122432505,0.001770272603668087
0.66,0.645,0.68625,0.61875,0.715,0.5725,0.9325,0.8375,0.85375,0.77375,0.8,0.7525,0.5313891556797345,0.4326290055007422,0.588011874618004,0.6652652034323008,0.48527813653029017,0.11907859965291108,0.47657571687291617,0.0014822598228289888
0.66,0.645,0.68625,0.61875,0.715,0.5725,0.9325,0.8375,0.85375,0.77375,0.8,0.7525,0.5298873657556972,0.42649960708984547,0.5909106784248669,0.6524708954408754,0.4789780066679866,0.11907859965291108,0.47657571687291617,0.0014822598228289888
0.66,0.6452500000000001,0.6865000000000001,0.619,0.7155,0.573,0.9325,0.8377500000000001,0.853,0.774,0.79925,0.7525,0.5279752030035798,0.42026543263773686,0.5959835850868768,0.6376326026873437,0.4709831809067022,0.12251514100540807,0.47802555828338283,0.002068074584525368
0.66,0.6455,0.68675,0.61925,0.716,0.5735,0.9325,0.838,0.85225,0.77425,0.7985,0.7525,0.5268925172443901,0.41791670304723655,0.5981052999214179,0.6267011680930367,0.463777489059993,0.12202554349401513,0.47850884275480066,0.0001491457204290947
0.66,0.64575,0.687,0.6195,0.7165,0.574,0.9325,0.83825,0.8515,0.7745000000000001,0.7977500000000001,0.7525,0.5256788614336855,0.41575133152885707,0.5994935824674757,0.6142044029760729,0.4542820163747076,0.12202554349401513,0.47850884275480066,0.0001491457204290947
0.66,0.6459999999999999,0.6872499999999999,0.61975,0.7170000000000001,0.5745,0.9325,0.8384999999999999,0.85075,0.7747499999999999,0.797,0.7525,0.5240810268052039,0.4169737186763294,0.6001222387147472,0.6032988377341232,0.4442949523458106,0.11662749453073928,0.47899212122432505,0.000746872226368124
0.66,0.64625,0.6875,0.62,0.7175,0.575,0.9325,0.83875,0.85,0.775,0.79625,0.7525,0.521697371867633,0.41821356849733693,0.600715969614948,0.597671411895577,0.43393272686411977,0.11662749453073928,0.47899212122432505,0.000746872226368124
0.66,0.64625,0.6875,0.62,0.7175,0.575,0.9325,0.83875,0.85,0.775,0.79625,0.7525,0.5183881952326901,0.4177944643324893,0.5998777612852528,0.5961707660844018,0.4248770987244541,0.11907547601057882,0.4736724629253284,0.0008900243881168898
0.66,0.64625,0.6875,0.62,0.7175,0.575,0.9325,0.83875,0.85,0.775,0.79625,0.7525,0.5136034226840129,0.4152361826595652,0.5986466428010129,0.5920181134673628,0.4175161664837694,0.12006091224090402,0.47512383481864695,4.134355102736563e-06
0.66,0.64625,0.6875,0.62,0.7175,0.575,0.9325,0.83875,0.85,0.775,0.79625,0.7525,0.508172531214529,0.4125469309351262,0.5980005238802061,0.5843596399708719,0.41285898622828465,0.12006091224090402,0.47512383481864695,4.134355102736563e-06
0.66025,0.6467499999999999,0.6875,0.62025,0.7175,0.5755,0.9322499999999999,0.83875,0.8504999999999999,0.77575,0.7972499999999999,0.753,0.5033615646555487,0.40846939666462934,0.5978084344713176,0.5791979328862693,0.41049158600204844,0.11809003978025358,0.47512485514054836,0.0
0.6605,0.64725,0.6875,0.6204999999999999,0.7175,0.5760000000000001,0.932,0.83875,0.851,0.7765000000000001,0.79825,0.7535,0.4983847026979831,0.40662708460665326,0.5964725399458657,0.5690944397758823,0.4113195299139516,0.11809003978025358,0.47512485514054836,0.0
0.6607500000000001,0.64775,0.6875,0.62075,0.7175,0.5765,0.93175,0.83875,0.8515,0.77725,0.79925,0.754,0.4924386623592072,0.40712477080240983,0.5941063476818301,0.5517723171076283,0.41439844416127325,0.119568197164304,0.4765741863900642,0.0011850868818207908
0.6609999999999999,0.64825,0.6875,0.621,0.7175,0.5770000000000001,0.9315000000000001,0.83875,0.852,0.778,0.80025,0.7545000000000001,0.4872260543089147,0.41103640967432115,0.5920370208678949,0.5307761974781088,0.4201811095844672,0.11760668955352517,0.4794759098548001,0.0010362677782364078
0.66125,0.64875,0.6875,0.62125,0.7175,0.5775,0.93125,0.83875,0.8525,0.77875,0.80125,0.755,0.481865013533572,0.4195058063389505,0.5912337378852702,0.5074514881255108,0.4284734777143833,0.11760668955352517,0.4794759098548001,0.0010362677782364078
0.66125,0.64875,0.6875,0.62125,0.7175,0.5775,0.93125,0.83875,0.8525,0.77875,0.80125,0.755,0.47611106260368463,0.42975639570418234,0.590753514363049,0.48235446267694415,0.4369081483247854,0.12300161487446878,0.4760909079205399,0.0011881325141078168
0.66125,0.64875,0.6875,0.62125,0.7175,0.5775,0.93125,0.83875,0.8525,0.77875,0.80125,0.755,0.47136121540207804,0.44059198463284727,0.5936261241596088,0.4625873210017898,0.44439844594179434,0.12006403588323629,0.4789926313852758,0.0011852404196537733
0.66125,0.64875,0.6875,0.62125,0.7175,0.5775,0.93125,0.83875,0.8525,0.77875,0.80125,0.755,0.4673622631624902,0.452099886492622,0.5973544049593993,0.4523156518095889,0.4498965055946885,0.12202554349401513,0.47802555828338283,0.0007431742909239931
0.6615000000000001,0.64875,0.6877500000000001,0.62125,0.7175,0.57775,0.9322499999999999,0.83975,0.85225,0.77925,0.8009999999999999,0.7555,0.4640705492010827,0.46311010215664017,0.6016414913123199,0.4472186270084844,0.4525097010880667,0.12006091224090402,0.48092524110431606,0.0025103919569818465
0.66175,0.64875,0.688,0.62125,0.7175,0.578,0.93325,0.84075,0.852,0.7797499999999999,0.8007500000000001,0.7559999999999999,0.46044704444250417,0.46875054570854796,0.6040949969440321,0.45525226216010095,0.452043983143451,0.11810252827245746,0.47899314154622646,0.002660747369428398
0.662,0.64875,0.68825,0.62125,0.7175,0.57825,0.93425,0.84175,0.85175,0.7802500000000001,0.8005,0.7565000000000001,0.4541604819697896,0.4694577839867284,0.604583951803021,0.46527813568049603,0.4537645524414278,0.11907859965291108,0.47802504812243213,0.001038993307404967
0.6622499999999999,0.64875,0.6884999999999999,0.62125,0.7175,0.5785,0.93525,0.8427500000000001,0.8515,0.78075,0.80025,0.757,0.4458307866934428,0.4629529380948223,0.6022614162228237,0.4718628712119334,0.46147477233124656,0.11907859965291108,0.47802504812243213,0.001038993307404967
0.6625,0.64875,0.68875,0.62125,0.7175,0.57875,0.93625,0.84375,0.85125,0.78125,0.8,0.7575,0.4398323583340609,0.4554701824849384,0.5999476119793941,0.47156532914679955,0.47292367288215276,0.12153282841741511,0.47850884275480066,0.0020646967521997035
0.6625,0.64875,0.68875,0.62125,0.7175,0.57875,0.93625,0.84375,0.85125,0.78125,0.8,0.7575,0.43498646642801014,0.4485375010914171,0.5977123897668732,0.471009054710362,0.4851358334428084,0.12153282841741511,0.47850884275480066,0.0020646967521997035
0.6625,0.64875,0.68875,0.62125,0.7175,0.57875,0.93625,0.84375,0.85125,0.78125,0.8,0.7575,0.4319392298960971,0.4440932506766786,0.5956343316161704,0.4653945657736458,0.4977490292599177,0.12399641595466558,0.47657571687291617,0.001773318235955113
0.6625,0.64875,0.68875,0.62125,0.7175,0.57875,0.93625,0.84375,0.85125,0.78125,0.8,0.7575,0.43183445385488517,0.4438138479001135,0.5938706015891033,0.4610737378841207,0.5088615784565239,0.12104634847122928,0.47754125949195714,0.0020689874367323855
0.6625,0.64875,0.6890000000000001,0.62075,0.7175,0.5792499999999999,0.93625,0.84375,0.85175,0.782,0.8005,0.758,0.4346896009779097,0.4480834715794988,0.5920981402252685,0.46161707521639644,0.5157826653422611,0.12104634847122928,0.47754125949195714,0.0020689874367323855
0.6625,0.64875,0.6892499999999999,0.62025,0.7175,0.57975,0.93625,0.84375,0.85225,0.7827500000000001,0.8009999999999999,0.7585,0.43940452283244563,0.4522745132279752,0.5904653802497162,0.4646183688620664,0.5193272967248708,0.12350057723573332,0.47754227981385844,0.0019175730785044045
0.6625,0.64875,0.6895,0.61975,0.7175,0.5802499999999999,0.93625,0.84375,0.85275,0.7835,0.8015000000000001,0.759,0.44542914520213045,0.45609010739544226,0.590421723565878,0.4679430779718661,0.5191720575448868,0.11957132080663628,0.478026074446227,0.00030573849102410934
0.6625,0.64875,0.68975,0.61925,0.7175,0.58075,0.93625,0.84375,0.8532500000000001,0.78425,0.802,0.7595000000000001,0.45331354230332666,0.4591810006111936,0.5912075438749672,0.4710090543056981,0.516377749561049,0.12398705110479397,0.47705798102243274,0.002512997447480985
0.6625,0.64875,0.69,0.61875,0.7175,0.58125,0.93625,0.84375,0.85375,0.785,0.8025,0.76,0.4611280887103816,0.4609447306382607,0.5921592595826422,0.47491591064393546,0.5064165589311479,0.12398705110479397,0.47705798102243274,0.002512997447480985
0.6625,0.64875,0.69,0.61875,0.7175,0.58125,0.93625,0.84375,0.85375,0.785,0.8025,0.76,0.4674495765301668,0.46097965598533136,0.5919235134899153,0.47780077500578344,0.4942173346653263,0.12153594598262224,0.48092830807191367,0.0028045192657030257
0.6625,0.64875,0.69,0.61875,0.7175,0.58125,0.93625,0.84375,0.85375,0.785,0.8025,0.76,0.4704269623679385,0.46057801449401903,0.5903344101982013,0.4773997401539937,0.48557567848161226,0.12153594598262224,0.48092830807191367,0.0028045192657030257
0.6625,0.64875,0.68975,0.61925,0.7177500000000001,0.58125,0.93625,0.8434999999999999,0.8532500000000001,0.78475,0.8025,0.7597499999999999,0.4734305422160133,0.46331092290229636,0.5884833668034576,0.47715394488685176,0.4807503225489776,0.12104947211356151,0.47802504812243213,0.0016264914020702515
0.6625,0.64875,0.6895,0.61975,0.718,0.58125,0.93625,0.84325,0.85275,0.7845,0.8025,0.7595000000000001,0.4612241334148258,0.46401816118047673,0.5830874006810443,0.4672703744539385,0.4837774895051233,0.12105259575589378,0.47802555828338283,0.0011815462063389306
0.6625,0.64875,0.6892499999999999,0.62025,0.71825,0.58125,0.93625,0.843,0.85225,0.78425,0.8025,0.75925,0.4527634680869641,0.469440321313193,0.5689251724439012,0.4519663643627868,0.49822768451102717,0.1240026632393301,0.47996021464811933,0.0016220732346095728
0.6625,0.64875,0.6890000000000001,0.62075,0.7184999999999999,0.58125,0.93625,0.8427500000000001,0.85175,0.784,0.8025,0.759,0.463319654239064,0.47213830437439974,0.5702523356325854,0.4507632596050856,0.5237904287135373,0.1240026632393301,0.47996021464811933,0.0016220732346095728
0.6625,0.64875,0.68875,0.62125,0.71875,0.58125,0.93625,0.8425,0.85125,0.78375,0.8025,0.75875,0.45976600017462677,0.4774818824762071,0.6097790971797782,0.4616429494247201,0.5446054357640769,0.12343814085183914,0.4378892936932673,0.00853983475521432
0.6625,0.64875,0.68875,0.62125,0.71875,0.58125,0.93625,0.8425,0.85125,0.78375,0.8025,0.75875,0.46435868331441543,0.48389941500043654,0.6109316336331092,0.46988357035198053,0.5423156555324965,0.15999866667873985,0.4611842690250348,0.1279665786810516
0.6625,0.64875,0.68875,0.62125,0.71875,0.58125,0.93625,0.8425,0.85125,0.78375,0.8025,0.75875,0.47978695538286914,0.49166157338688554,0.6151837946389592,0.4877619664450123,0.5395472208085514,0.14917759784490556,0.4597359580974202,0.1279595810779967
0.6625,0.64825,0.68875,0.6214999999999999,0.7184999999999999,0.58125,0.9325,0.83975,0.84725,0.778,0.79825,0.7525,0.4916528420501179,0.4950231380424343,0.6293634855496376,0.5087063388718761,0.531694697578336,0.14917759784490556,0.4597359580974202,0.1279595810779967
0.6625,0.64775,0.68875,0.62175,0.71825,0.58125,0.92875,0.8370000000000001,0.84325,0.77225,0.794,0.74625,0.4855845629965948,0.50082074565616,0.6290666200995372,0.5146054333765601,0.5123544633446395,0.15010372133366884,0.42685247168629226,0.1332498899566435
0.6625,0.64725,0.68875,0.622,0.718,0.58125,0.925,0.8342499999999999,0.8392499999999999,0.7665000000000001,0.78975,0.74,0.4938182135684973,0.5043831310573649,0.5913996332838558,0.5109702458056266,0.49280724434695894,0.22019092625657774,0.33645810916886165,0.17841147465162316
0.662,0.6467499999999999,0.68875,0.622,0.7175,0.58075,0.919,0.83,0.8345,0.75725,0.7835,0.72775,0.4914956779883,0.5034663406967607,0.5907098576792107,0.5096895213567674,0.4952263905618593,0.22019092625657774,0.33645810916886165,0.17841147465162316
0.6615000000000001,0.64625,0.68875,0.622,0.7170000000000001,0.5802499999999999,0.9129999999999999,0.82575,0.82975,0.748,0.77725,0.7155,0.4914345586309264,0.5022264908757531,0.5900986641054745,0.5079948253566205,0.4920957307811204,0.22557648672764977,0.3229206462346806,0.1842879844628795
0.6609999999999999,0.64625,0.68875,0.62175,0.71675,0.57975,0.9107500000000001,0.8242499999999999,0.8290000000000001,0.7445,0.7752500000000001,0.7095,0.4916004540295119,0.501178730463634,0.5894176198375971,0.5060672703841659,0.4888227681152317,0.22749429373140279,0.3180949917889595,0.19883128062338834
0.6605,0.64625,0.68875,0.6214999999999999,0.7165,0.5792499999999999,0.9085,0.8227500000000001,0.82825,0.741,0.77325,0.7034999999999999,0.49188858814284464,0.5012049244739369,0.5895311272155768,0.5049288487192907,0.4874644239752146,0.23090898174182437,0.3156867680184421,0.20483752152872606
0.66,0.64625,0.68875,0.62125,0.71625,0.57875,0.90625,0.82125,0.8275,0.7375,0.77125,0.6975,0.4927966471666812,0.5010652230856544,0.5892517244390116,0.5046442432524888,0.4873738676857247,0.22942458315023456,0.31811134094695537,0.2108504818079545
0.65975,0.64625,0.68875,0.62125,0.7165,0.57875,0.9045000000000001,0.821,0.82525,0.73425,0.7702500000000001,0.6892499999999999,0.49375709421112374,0.5010477604121191,0.5889548589889112,0.504437257476845,0.48820181088946607,0.209644051232839,0.36168214710058877,0.26881435530127407
0.6595,0.64625,0.68875,0.62125,0.71675,0.57875,0.90275,0.82075,0.823,0.731,0.76925,0.6809999999999999,0.49438575045839517,0.5011699991268663,0.5887191128961844,0.504385511083517,0.4899611898812729,0.23157911848747162,0.3675560562601895,0.34284233487093074
0.65925,0.64625,0.68875,0.62125,0.7170000000000001,0.57875,0.9009999999999999,0.8205,0.82075,0.72775,0.76825,0.6727500000000001,0.49458657120405136,0.5008382083296953,0.588806426263861,0.5046442433536548,0.4922639067111853,0.23746364131980813,0.3607870667116769,0.34651429450531707
0.659,0.64625,0.68875,0.62125,0.7172499999999999,0.57875,0.89925,0.82025,0.8184999999999999,0.7245,0.76725,0.6645,0.4947437352658692,0.500768357635554,0.58888500829477,0.5052005175877604,0.4940620956497371,0.29532030977051615,0.36809497828469906,0.4031322386051102
0.65875,0.64625,0.68875,0.62125,0.7175,0.57875,0.8975,0.82,0.81625,0.72125,0.76625,0.65625,0.4944817951628394,0.5008556710032306,0.5891120230507291,0.5057050454285381,0.4957697282482159,0.28597115103606774,0.35600837708288585,0.4141673972074305
0.6585,0.64625,0.68825,0.62125,0.7172499999999999,0.57875,0.8965000000000001,0.8195,0.81375,0.72,0.7647499999999999,0.653,0.49415000436566836,0.5011699991268663,0.5892691871125469,0.5052134542366754,0.49774902971516455,0.2874399374931214,0.3502064546343726,0.4181482637953944
0.65825,0.64625,0.6877500000000001,0.62125,0.7170000000000001,0.57875,0.8955,0.8190000000000001,0.81125,0.71875,0.76325,0.6497499999999999,0.49392298960970926,0.5012747751680783,0.5893565004802235,0.5041914619567881,0.4995860284992953,0.2874399374931214,0.3502064546343726,0.4181482637953944
0.6577500000000001,0.6455,0.687,0.621,0.71675,0.57875,0.89275,0.8170000000000001,0.8072499999999999,0.71625,0.7615000000000001,0.645,0.49390552693617396,0.5016240286387846,0.5891294857242644,0.5030142303198765,0.501306597797272,0.28741808415104597,0.3337693088792583,0.43891294737814235
0.6565000000000001,0.6435,0.6855,0.62,0.71575,0.578,0.8895000000000001,0.8145,0.8015000000000001,0.713,0.7595000000000001,0.6417499999999999,0.4934253034139527,0.5017549986902995,0.5889723216624465,0.5018758085538352,0.5023544633244064,0.28741808415104597,0.3337693088792583,0.43891294737814235
0.6552500000000001,0.6415000000000001,0.684,0.619,0.71475,0.57725,0.88625,0.812,0.7957500000000001,0.70975,0.7575,0.6385000000000001,0.49325940801536716,0.5017288046799965,0.5888675456212347,0.500737386787794,0.5033893922026256,0.2854378468405238,0.3313498435621454,0.44112416761069023
0.65425,0.6395000000000001,0.6829999999999999,0.618,0.7140000000000001,0.5765,0.884,0.81,0.7925,0.7077500000000001,0.757,0.6385000000000001,0.4930498559329433,0.5014843272505021,0.5888675456212347,0.5006985769675065,0.5032988359131357,0.2898691892732177,0.3294172338431052,0.44642683395856153
0.65325,0.6375,0.682,0.617,0.71325,0.57575,0.8817499999999999,0.8079999999999999,0.78925,0.70575,0.7565000000000001,0.6385000000000001,0.49280537850344885,0.5012922378416136,0.5889112023050729,0.5011254851171263,0.5024062097430259,0.2873775011092272,0.3124916960051727,0.4538002873926742
0.6525,0.63625,0.68125,0.61625,0.7125,0.575,0.88125,0.8075,0.7875,0.705,0.75625,0.64,0.49266567711516634,0.5012049244739369,0.5889199336418406,0.5016170763342804,0.5011642950385797,0.28589310251763744,0.30572373278045495,0.4585078262113793
0.6525,0.63625,0.68125,0.61625,0.7125,0.575,0.88125,0.8075,0.7875,0.705,0.75625,0.64,0.49275299048284293,0.5013009691783812,0.5888500829476992,0.5017723156660133,0.5001423027586924,0.28882443422420545,0.2975048778139015,0.4627767093023115
0.6525,0.63625,0.68125,0.61625,0.7125,0.575,0.88125,0.8075,0.7875,0.705,0.75625,0.64,0.49280537850344885,0.5013970138828254,0.5887889635903256,0.5020698577311471,0.49901681759098315,0.30882921206000624,0.29222402175662404,0.521010660496513
0.652,0.63575,0.6805,0.615,0.71175,0.57325,0.88075,0.8065000000000001,0.7879999999999999,0.70475,0.7559999999999999,0.64,0.4927791844931459,0.5014057452195931,0.5887627695800227,0.5023415265743254,0.4979430788671849,0.30882921206000624,0.29222402175662404,0.521010660496513
0.6515000000000001,0.63525,0.67975,0.61375,0.711,0.5715,0.8802500000000001,0.8055,0.7885,0.7045,0.75575,0.64,0.4927267964725399,0.5014319392298962,0.5887976949270933,0.5025226391533053,0.4974514876500308,0.3117667849741136,0.29222963952897496,0.527910361315297
0.6509999999999999,0.63475,0.679,0.6125,0.71025,0.56975,0.8797499999999999,0.8045,0.789,0.7042499999999999,0.7555,0.64,0.4926045577577927,0.5016240286387846,0.5889461276521435,0.5027166883306171,0.49701164290207905,0.31809095742615273,0.29708337683455754,0.5524551119164344
0.6505,0.63425,0.67825,0.61125,0.7095,0.568,0.87925,0.8035,0.7895,0.7040000000000001,0.7552500000000001,0.64,0.49271806513577227,0.5017724613638348,0.5890421723565877,0.502768434774528,0.49689521341592513,0.3567160102895452,0.329057492348261,0.6219449076887651
0.65,0.63375,0.6775,0.61,0.70875,0.56625,0.87875,0.8025,0.79,0.70375,0.755,0.64,0.4928228411769842,0.5018859687418143,0.5892080677551733,0.5024708927093943,0.49701164290207905,0.35911716144290157,0.32519890500253923,0.6410472045851557
0.6495000000000001,0.6335000000000001,0.67675,0.60925,0.7075,0.56525,0.877,0.8025,0.78875,0.7025,0.7547499999999999,0.6385000000000001,0.49298873657556974,0.5020518641403999,0.5893128437963853,0.5020827943547705,0.49727037512163386,0.3605734654848765,0.3218174741949338,0.6451604077576999
0.649,0.63325,0.6759999999999999,0.6085,0.70625,0.5642499999999999,0.8752500000000001,0.8025,0.7875,0.70125,0.7545000000000001,0.637,0.4931022439535493,0.5022002968654501,0.5893914258272942,0.5017335058457258,0.4976326002290106,0.3605734654848765,0.3218174741949338,0.6451604077576999
0.6485,0.633,0.67525,0.60775,0.705,0.56325,0.8734999999999999,0.8025,0.78625,0.7,0.75425,0.6355,0.4932244826682965,0.5020518641403999,0.5893652318169912,0.5008667528975714,0.49818887448840776,0.3713414688618134,0.3116685903235612,0.6573697008764213
0.64775,0.632,0.67425,0.60675,0.70325,0.56175,0.87225,0.802,0.7857500000000001,0.6984999999999999,0.7535,0.63325,0.4931808259844582,0.5019558194359557,0.5893303064699206,0.5001811125283969,0.49860284601440397,0.3713414688618134,0.3116685903235612,0.6573697008764213
0.647,0.631,0.67325,0.60575,0.7015,0.56025,0.871,0.8015000000000001,0.78525,0.6970000000000001,0.75275,0.631,0.4931895573212259,0.501842312057976,0.5892429931022439,0.4996765847129107,0.4988227684010256,0.37429153026812456,0.309734954280726,0.6585495777077762
0.6467499999999999,0.63025,0.6729999999999999,0.6054999999999999,0.701,0.55975,0.8715,0.8009999999999999,0.7859999999999999,0.69675,0.75225,0.63025,0.4931371693006199,0.501842312057976,0.5891993364184056,0.4991591202738011,0.49906856400960264,0.37426655936084197,0.30344669839887783,0.6591333908944497
0.6465000000000001,0.6295000000000001,0.6727500000000001,0.60525,0.7005,0.55925,0.872,0.8005,0.78675,0.6965,0.7517499999999999,0.6295000000000001,0.4931022439535493,0.501842312057976,0.589190605081638,0.498615782612736,0.4991979301193801,0.37082689436601274,0.3140839683511751,0.6619255117475064
0.64625,0.62875,0.6725,0.605,0.7,0.55875,0.8725,0.8,0.7875,0.69625,0.75125,0.62875,0.49298873657556974,0.501842312057976,0.589190605081638,0.49848641650295855,0.4991073738551816,0.3737800854917813,0.3135981390768974,0.6594266853767435
0.64625,0.62875,0.6725,0.605,0.7,0.55875,0.8725,0.8,0.7875,0.69625,0.75125,0.62875,0.4929625425652667,0.5018597747315114,0.5891993364184056,0.49838292361513664,0.49891332470316124,0.3737800854917813,0.3135981390768974,0.6594266853767435
0.64625,0.62875,0.6725,0.605,0.7,0.55875,0.8725,0.8,0.7875,0.69625,0.75125,0.62875,0.4928403038505195,0.5018248493844407,0.5890945603771938,0.4983053039492702,0.49869340231653964,0.34875759557084535,0.3164743304865252,0.635608127782202
0.64625,0.62875,0.6725,0.605,0.7,0.55875,0.8725,0.8,0.7875,0.69625,0.75125,0.62875,0.4929538112284991,0.5016938793329259,0.5890683663668907,0.49822768430869524,0.4983053039745617,0.2968759808859828,0.38410805425003536,0.5501347355899575
0.64625,0.62875,0.6725,0.605,0.7,0.55875,0.8725,0.8,0.7875,0.69625,0.75125,0.62875,0.49314590063738756,0.5016502226490875,0.5890858290404261,0.4981371280444968,0.4979818886874724,0.29492695569028266,0.38652192580237144,0.5420555990121386
0.64625,0.62875,0.6725,0.60525,0.7,0.5585,0.872,0.79975,0.787,0.69575,0.7509999999999999,0.62775,0.4932244826682965,0.5015978346284816,0.5891993364184056,0.4980465717802983,0.497813712732116,0.29492695569028266,0.38652192580237144,0.5420555990121386
0.64625,0.62875,0.6725,0.6054999999999999,0.7,0.55825,0.8715,0.7995,0.7865000000000001,0.69525,0.75075,0.6267499999999999,0.49332925870950844,0.5016152973020169,0.5891382170610321,0.49780077615907553,0.49789133237269095,0.27483789420563737,0.3913322634157851,0.5189735075010183
0.6467499999999999,0.629,0.6729999999999999,0.606,0.70025,0.5585,0.871,0.79925,0.78525,0.69475,0.7509999999999999,0.6255,0.493442766087488,0.5017113420064612,0.5892342617654763,0.49760672698176367,0.4984087968118006,0.26748770248145426,0.38842390185679676,0.5128040847257198
0.64725,0.62925,0.6735,0.6065,0.7005,0.55875,0.8704999999999999,0.799,0.784,0.6942499999999999,0.75125,0.62425,0.49336418405657906,0.5017113420064612,0.5891294857242644,0.49737386795887284,0.49906856398431115,0.26748770248145426,0.38842390185679676,0.5128040847257198
0.64775,0.6295000000000001,0.674,0.607,0.70075,0.5589999999999999,0.87,0.79875,0.7827500000000001,0.69375,0.7515000000000001,0.623,0.4931371693006199,0.5014930585872697,0.5890334410198201,0.49719275537989294,0.49956015521411107,0.2473955173544767,0.38550277427025453,0.4898659540089352
0.64825,0.62975,0.6745,0.6072500000000001,0.701,0.5595,0.87,0.79875,0.782,0.69375,0.752,0.62275,0.4932332140050642,0.5013795512092901,0.5889548589889112,0.49712807233765,0.4999223803214878,0.21851869588054168,0.3815931288162102,0.4435827605554846
0.649,0.63025,0.6755,0.6075,0.70175,0.56025,0.87075,0.7985,0.7822499999999999,0.6945,0.753,0.623,0.49311097529031694,0.5011612677900986,0.5889548589889112,0.49732212151496186,0.5001164294987996,0.21558735809684856,0.3806224845876625,0.44093176609531387
0.64925,0.6305,0.6759999999999999,0.6075,0.7022499999999999,0.5605,0.8715,0.79825,0.78325,0.69525,0.7535,0.6235,0.4930498559329433,0.5009517157076748,0.5890334410198201,0.4975549805378527,0.4999094437231558,0.21558735809684856,0.3806224845876625,0.44093176609531387
0.6495000000000001,0.63075,0.6765000000000001,0.6075,0.7027500000000001,0.5607500000000001,0.87225,0.7979999999999999,0.78425,0.696,0.754,0.624,0.4930149305858727,0.500794551645857,0.5891382170610321,0.49800776193471935,0.49963777489262323,0.21067578300263334,0.37916804572674634,0.4377059520433531
0.6497499999999999,0.631,0.677,0.6075,0.70325,0.561,0.873,0.7977500000000001,0.78525,0.69675,0.7545000000000001,0.6245,0.49304112459617566,0.5008120143193923,0.5891032917139614,0.4985381629974525,0.49943078912962513,0.20381831243217544,0.37577743802392216,0.4318150766741232
0.65,0.63125,0.6775,0.6075,0.70375,0.56125,0.87375,0.7975,0.78625,0.6975,0.755,0.625,0.4928839605343578,0.5007770889723216,0.5890683663668907,0.49918499352104806,0.4991720569100703,0.20184743997152502,0.37529160274775086,0.43005367669613703
0.65,0.63125,0.6775,0.60775,0.70375,0.5615,0.8734999999999999,0.7977500000000001,0.78625,0.6975,0.7545000000000001,0.62475,0.4928664978608225,0.5006985069414127,0.5891731424081027,0.4997024579601577,0.4988745148449365,0.20184743997152502,0.37529160274775086,0.43005367669613703
0.65,0.63125,0.6775,0.608,0.70375,0.56175,0.8732500000000001,0.7979999999999999,0.78625,0.6975,0.754,0.6245,0.4929450798917314,0.500715969614948,0.5890509036933554,0.5001681759427107,0.49855109958313876,0.19940257605689254,0.38495976495624606,0.4276997081528678
0.65,0.63125,0.6775,0.6082500000000001,0.70375,0.562,0.873,0.79825,0.78625,0.6975,0.7535,0.62425,0.49300619924910505,0.5006461189208068,0.5890770977036585,0.5004269081622654,0.49817593789007575,0.2141123243551304,0.4101224995473822,0.4394395039805652
0.65,0.63125,0.6775,0.6085,0.70375,0.56225,0.87275,0.7985,0.78625,0.6975,0.753,0.624,0.49300619924910505,0.5005588055531301,0.5890945603771938,0.5006727037581968,0.497839585979363,0.21704677970403058,0.4101260766759305,0.44267217884732957
0.65,0.63125,0.6775,0.60875,0.70375,0.5625,0.8725,0.79875,0.78625,0.6975,0.7525,0.62375,0.49304112459617566,0.5005937309002009,0.5891294857242644,0.5008926261321727,0.49759379038343166,0.21704677970403058,0.4101260766759305,0.44267217884732957
0.65,0.63125,0.6775,0.60875,0.70375,0.5625,0.8725,0.79875,0.78625,0.6975,0.7525,0.62375,0.4930498559329433,0.500768357635554,0.5890334410198201,0.5011384217533955,0.4974644242989457,0.21899580489973072,0.4222259540662484,0.45279851630864637
0.65,0.6315,0.6775,0.60875,0.70375,0.563,0.87175,0.7979999999999999,0.7845,0.6972499999999999,0.7517499999999999,0.623,0.4929625425652667,0.5008556710032306,0.5891294857242644,0.5013454075416851,0.4975420439395207,0.21899580489973072,0.4222259540662484,0.45279851630864637
0.65,0.6317499999999999,0.6775,0.60875,0.70375,0.5635,0.871,0.7972499999999999,0.7827500000000001,0.6970000000000001,0.7509999999999999,0.62225,0.4929276172181961,0.5010477604121191,0.5889897843359818,0.5015523933173289,0.49776196631349656,0.2204677149991166,0.42174624672337874,0.45455568143403907
0.65,0.632,0.6775,0.60875,0.70375,0.564,0.8702500000000001,0.7965000000000001,0.7809999999999999,0.69675,0.7502500000000001,0.6214999999999999,0.493084781280014,0.5012922378416136,0.5889548589889112,0.5016170763848634,0.4979430788924764,0.2268480765503855,0.4309403193613553,0.4610213568538803
0.65,0.63225,0.6775,0.60875,0.70375,0.5645,0.8695,0.7957500000000001,0.77925,0.6965,0.7495,0.62075,0.4931808259844582,0.5013533571989872,0.5888937396315376,0.5015912031881994,0.4981241914208733,0.228803342953625,0.43336284564417227,0.4624784150698564
0.65,0.6325,0.6775,0.60875,0.70375,0.565,0.86875,0.795,0.7775,0.69625,0.74875,0.62,0.4932332140050642,0.5014319392298962,0.5889985156727495,0.5015394567442885,0.4982664941289827,0.23470034820104024,0.43868557091076665,0.4661601955423599
0.65,0.6325,0.6775,0.60875,0.70375,0.565,0.86875,0.795,0.7775,0.69625,0.74875,0.62,0.49330306469920543,0.5013620885357548,0.5889897843359818,0.5014359638564665,0.49833117719651715,0.2616406451257293,0.4527298037257774,0.48526496486312753
0.65,0.6325,0.6775,0.60875,0.70375,0.565,0.86875,0.795,0.7775,0.69625,0.74875,0.62,0.49332925870950844,0.5013009691783812,0.5891207543874968,0.5013712808142236,0.4983699870168046,0.2616406451257293,0.4527298037257774,0.48526496486312753
0.65,0.6325,0.6775,0.609,0.7040000000000001,0.56525,0.8682500000000001,0.795,0.77625,0.69625,0.7484999999999999,0.6195,0.4933554527198114,0.5012049244739369,0.5891207543874968,0.5013324709939361,0.4983699870168046,0.2621302365599971,0.45563509831716814,0.4859979591304585
0.65,0.6325,0.6775,0.60925,0.7042499999999999,0.5655,0.86775,0.795,0.775,0.69625,0.7482500000000001,0.619,0.4933729153933467,0.5011350737797957,0.5891382170610321,0.5013065977466891,0.49848641652825004,0.26360215273650817,0.45853784810569886,0.49100307567173146
0.65,0.6325,0.6775,0.6095,0.7045,0.56575,0.86725,0.795,0.77375,0.69625,0.748,0.6185,0.4933554527198114,0.5008731336767659,0.5890683663668907,0.5012419146791547,0.4984605433062946,0.265563660347287,0.45660625870856003,0.4909992604892149
0.6497499999999999,0.63275,0.6772499999999999,0.60975,0.7045,0.5665,0.86625,0.795,0.77225,0.696,0.7482500000000001,0.61775,0.4933729153933467,0.5010041037282807,0.5889635903256789,0.5012677878758186,0.49834411379484916,0.26996066094570154,0.4595176812332523,0.5005393002425605
0.6495000000000001,0.633,0.677,0.61,0.7045,0.56725,0.8652500000000001,0.795,0.77075,0.69575,0.7484999999999999,0.617,0.4933729153933467,0.5011001484327251,0.5888326202741639,0.5012936610724826,0.49816300124116075,0.2728514096104508,0.4619539998674182,0.5227183668985059
0.64925,0.63325,0.67675,0.61,0.7042499999999999,0.56775,0.8647499999999999,0.795,0.7705,0.6955,0.7490000000000001,0.61675,0.49332925870950844,0.5011176111062604,0.5888326202741639,0.5013195342691467,0.49816300124116075,0.2738337282755689,0.45905584752933704,0.5244803707919684
0.649,0.6335000000000001,0.6765000000000001,0.61,0.7040000000000001,0.56825,0.86425,0.795,0.7702500000000001,0.69525,0.7495,0.6164999999999999,0.4934253034139527,0.5011176111062604,0.5889199336418406,0.5013454075163936,0.4979560154908084,0.2738337282755689,0.45905584752933704,0.5244803707919684
0.64875,0.63375,0.67625,0.61,0.70375,0.56875,0.86375,0.795,0.77,0.695,0.75,0.61625,0.4935038854448616,0.5013358945254518,0.58888500829477,0.50151358347175,0.49786545920131847,0.2968510039015751,0.4556871827492856,0.5409396264879369
0.64875,0.6335000000000001,0.67625,0.61,0.7034999999999999,0.56875,0.86375,0.795,0.7702500000000001,0.6945,0.7495,0.616,0.49352134811839693,0.5012835065048459,0.5890159783462848,0.501500646873418,0.49807244498960807,0.2968510039015751,0.4556871827492856,0.5409396264879369
0.64875,0.63325,0.67625,0.61,0.70325,0.56875,0.86375,0.795,0.7705,0.6940000000000001,0.7490000000000001,0.61575,0.49355627346546754,0.5012660438313106,0.5891731424081027,0.501487710275086,0.49834411382014066,0.2968510039015751,0.455207475406416,0.5447564337139609
0.64875,0.633,0.67625,0.61,0.703,0.56875,0.86375,0.795,0.77075,0.6934999999999999,0.7484999999999999,0.6154999999999999,0.49349515410809397,0.5012223871474722,0.5892866497860823,0.5015394567189969,0.49847347990462654,0.29634267669043896,0.45520951605021864,0.5513759372928712
0.64875,0.63275,0.67625,0.61,0.7027500000000001,0.56875,0.86375,0.795,0.7709999999999999,0.693,0.748,0.61525,0.4932856020256701,0.5014144765563607,0.5892255304287086,0.5018499353824627,0.4985122896996225,0.2913530591549186,0.42959359048186113,0.5746100554524869
0.6485,0.63225,0.6757500000000001,0.60975,0.7022499999999999,0.56825,0.863,0.79475,0.7725,0.6922499999999999,0.7475,0.6145,0.4932681393521348,0.5013708198725225,0.5892429931022439,0.5019922380652806,0.4985252263485375,0.29526983316893696,0.4305621940666061,0.577839521843808
0.64825,0.632,0.67525,0.6095,0.7020000000000001,0.56775,0.86225,0.7945,0.77375,0.6920000000000001,0.7475,0.614,0.49336418405657906,0.5013970138828254,0.5891469483977997,0.5022380336865034,0.498150064630183,0.29526983316893696,0.4305621940666061,0.577839521843808
0.648,0.6317499999999999,0.67475,0.60925,0.70175,0.56725,0.8615,0.79425,0.775,0.69175,0.7475,0.6135,0.49349515410809397,0.5014232078931284,0.5890334410198201,0.5025485123499692,0.4977231564679176,0.30160961167838707,0.42767170614657224,0.5912252357968436
0.64775,0.6315,0.67425,0.609,0.7015,0.56675,0.86075,0.794,0.77625,0.6915,0.7475,0.613,0.4935650048022352,0.5015541779446433,0.5889199336418406,0.5027425615272811,0.49743855105169876,0.31730167256461783,0.4339727280559744,0.6044430938160696
0.6475,0.63125,0.67375,0.60875,0.70125,0.56625,0.86,0.79375,0.7775,0.69125,0.7475,0.6125,0.4936610495066795,0.5014406705666637,0.5889024709683053,0.5025873221955482,0.49727037512163386,0.31924445047565353,0.4378451017511515,0.6085485177384091
0.6475,0.63125,0.67375,0.60875,0.70125,0.56625,0.86,0.79375,0.7775,0.69125,0.7475,0.6125,0.49373963153758843,0.5015716406181786,0.5889286649786082,0.5024967659566413,0.49716688223381195,0.31924445047565353,0.4378451017511515,0.6085485177384091
0.6475,0.63125,0.67375,0.60875,0.70125,0.56625,0.86,0.79375,0.7775,0.69125,0.7475,0.6125,0.4937309002008207,0.5015716406181786,0.5889199336418406,0.5024191462654833,0.4972574385233019,0.32512897330799007,0.4412352353043862,0.6120813134725751
0.64725,0.631,0.6735,0.60875,0.701,0.56625,0.8604999999999999,0.794,0.778,0.69125,0.74725,0.61225,0.49368724351698245,0.5015192525975727,0.5889810529992142,0.502238033711795,0.4974644242989457,0.33248852380491967,0.4475296251214296,0.619862414505924
0.647,0.63075,0.67325,0.60875,0.70075,0.56625,0.861,0.79425,0.7785,0.69125,0.747,0.612,0.49380948223172966,0.5016414913123199,0.5890945603771938,0.502134540823973,0.4976196636306786,0.34030958334075245,0.46011584794886945,0.6320530402157515
0.6467499999999999,0.6305,0.6729999999999999,0.60875,0.7005,0.56625,0.8615,0.7945,0.779,0.69125,0.74675,0.61175,0.4938880642626386,0.5016764166593906,0.5891556797345674,0.5020181113125276,0.4977749029624115,0.3461972298154213,0.46157130112979344,0.6363148028733626
0.6465000000000001,0.63025,0.6727500000000001,0.60875,0.70025,0.56625,0.862,0.79475,0.7795000000000001,0.69125,0.7465,0.6114999999999999,0.49389679559940625,0.5016152973020169,0.5890858290404261,0.5019016818010822,0.4978913324485654,0.3462003473806284,0.4606052543516954,0.6383692647005621
0.64625,0.63,0.6725,0.60875,0.7,0.56625,0.8625,0.795,0.78,0.69125,0.74625,0.61125,0.4938706015891033,0.5017026106696936,0.589164411071335,0.5017981889132602,0.4979818887127639,0.37368957278964776,0.46739160137631813,0.6449782169734831
0.64625,0.63,0.6725,0.60875,0.7,0.56625,0.8625,0.795,0.78,0.69125,0.74625,0.61125,0.4938444075788003,0.5017462673535318,0.5891818737448703,0.5016300129579039,0.4979560155160999,0.37025925441331464,0.4669062822629912,0.6430672599797819
0.64625,0.63,0.6725,0.60875,0.7,0.56625,0.8625,0.795,0.78,0.69125,0.74625,0.61125,0.4937832882214267,0.5016851479961583,0.5889985156727495,0.5014489004042155,0.49786545922660996,0.3741916587932446,0.4678738595239412,0.6410037803638583
0.6465000000000001,0.63,0.6727500000000001,0.60875,0.7,0.56675,0.8634999999999999,0.79525,0.78075,0.69175,0.7454999999999999,0.611,0.49372216886405307,0.5017026106696936,0.5889024709683053,0.5013454075163936,0.497878395824942,0.371737411797365,0.463521784487788,0.6415943203686812
0.6467499999999999,0.63,0.6729999999999999,0.60875,0.7,0.56725,0.8645,0.7955,0.7815000000000001,0.6922499999999999,0.7447499999999999,0.61075,0.49366978084344715,0.5018073867109054,0.5889548589889112,0.5010866752968388,0.4983441138074949,0.371737411797365,0.463521784487788,0.6415943203686812
0.647,0.63,0.67325,0.60875,0.7,0.56775,0.8654999999999999,0.7957500000000001,0.7822499999999999,0.6927500000000001,0.7440000000000001,0.6104999999999999,0.49365231816991184,0.5018597747315114,0.5888762769580023,0.5008408797009074,0.49877102196976036,0.3707426289485437,0.4712593776210457,0.6407063077914427
0.64725,0.63025,0.6735,0.6085,0.7,0.56825,0.86625,0.79625,0.7822499999999999,0.69325,0.7440000000000001,0.60975,0.4936959748537501,0.5019558194359557,0.5888238889373963,0.5006597671598648,0.4991979301067343,0.37320309892058706,0.4722290015276919,0.6402655295194453
0.6475,0.6305,0.67375,0.6082500000000001,0.7,0.56875,0.867,0.79675,0.7822499999999999,0.69375,0.7440000000000001,0.609,0.49364358683314413,0.501920894088885,0.5889461276521435,0.5005821474939983,0.49959896504704426,0.37320309892058706,0.4722290015276919,0.6402655295194453
0.6475,0.63075,0.67375,0.608,0.7,0.56875,0.86675,0.797,0.7815000000000001,0.69375,0.7447499999999999,0.6085,0.49372216886405307,0.5019645507727233,0.5889810529992142,0.5004786546061765,0.5000129366109778,0.3800917876829921,0.47174572305816764,0.6413007309076418
0.6475,0.631,0.67375,0.60775,0.7,0.56875,0.8665,0.7972499999999999,0.78075,0.69375,0.7454999999999999,0.608,0.4937483628743561,0.501868506068279,0.5890858290404261,0.5005562742720429,0.4999094437231558,0.3805876324790496,0.4630410568230171,0.6401261823043578
0.6475,0.63125,0.67375,0.6075,0.7,0.56875,0.86625,0.7975,0.78,0.69375,0.74625,0.6075,0.49380948223172966,0.5018597747315114,0.5891382170610321,0.5006209573269316,0.49987063389022257,0.3845012828507357,0.4572365895716439,0.6405753828243934
0.6475,0.63125,0.67375,0.6075,0.7,0.56875,0.86625,0.7975,0.78,0.69375,0.74625,0.6075,0.4938182135684973,0.5019121627521174,0.5891207543874968,0.5006985769927981,0.49980595083533386,0.40512988973846426,0.4490162281298127,0.6451582572975058
0.6475,0.63125,0.67375,0.6075,0.7,0.56875,0.86625,0.7975,0.78,0.69375,0.74625,0.6075,0.4939142582729416,0.5019121627521174,0.589190605081638,0.5006597671598648,0.49976714100240066,0.40512988973846426,0.4490162281298127,0.6451582572975058
0.6475,0.63125,0.67375,0.6075,0.7,0.56875,0.86625,0.7975,0.78,0.69375,0.74625,0.6075,0.49392298960970926,0.501920894088885,0.5892080677551733,0.5005562742720429,0.49965071150360096,0.40512988973846426,0.4490162281298127,0.6451582572975058
0.6475,0.63125,0.67375,0.6075,0.7,0.56875,0.86625,0.7975,0.78,0.69375,0.74625,0.6075,0.4938444075788003,0.5019383567624204,0.5891993364184056,0.5004139715512878,0.49961190167066777,0.40906851101743286,0.4446621064479633,0.6416403147202496
0.64725,0.631,0.67375,0.6072500000000001,0.7,0.568,0.8654999999999999,0.7972499999999999,0.779,0.6934999999999999,0.746,0.6072500000000001,0.4938182135684973,0.5018161180476731,0.5892691871125469,0.5002457956085771,0.49944372572795714,0.40906851101743286,0.4446621064479633,0.6416403147202496
0.647,0.63075,0.67375,0.607,0.7,0.56725,0.8647499999999999,0.797,0.778,0.69325,0.74575,0.607,0.4937832882214267,0.5017462673535318,0.5892691871125469,0.5001164294987996,0.4993143596181797,0.4120154548585369,0.4446605759651112,0.6412021186754432
0.6467499999999999,0.6305,0.67375,0.60675,0.7,0.5665,0.8640000000000001,0.79675,0.777,0.693,0.7454999999999999,0.60675,0.49373963153758843,0.5017637300270671,0.5891818737448703,0.49998706338902227,0.4992108667303578,0.4144821721152449,0.44562458209940653,0.6370934834860634
0.6465000000000001,0.63025,0.67375,0.6065,0.7,0.56575,0.8632500000000001,0.7965000000000001,0.7759999999999999,0.6927500000000001,0.7452500000000001,0.6065,0.49373963153758843,0.5017899240373701,0.589164411071335,0.5000129366109778,0.4990815006205804,0.4144821721152449,0.44562458209940653,0.6370934834860634
0.64625,0.63,0.67375,0.60625,0.7,0.565,0.8625,0.79625,0.775,0.6925,0.745,0.60625,0.4939142582729416,0.5017811927006025,0.5891120230507291,0.5000517464439109,0.49897800773275847,0.41891039090560644,0.44272234847372005,0.6359178843117889
0.64625,0.63,0.67375,0.60625,0.7,0.565,0.8625,0.79625,0.775,0.6925,0.745,0.60625,0.4939317209464769,0.5017986553741378,0.5890683663668907,0.5001681759427107,0.4990297541766694,0.41352170679220224,0.4441716797232359,0.6328320465147649
0.64625,0.63,0.67375,0.60625,0.7,0.565,0.8625,0.79625,0.775,0.6925,0.745,0.60625,0.49406269099799177,0.5017724613638348,0.5890770977036585,0.5002716688305325,0.4991591202864468,0.41892599696301747,0.44175323472802436,0.6301920574603561
0.6465000000000001,0.63025,0.67375,0.6065,0.7,0.565,0.862,0.797,0.77575,0.6925,0.745,0.6065,0.4942285863965773,0.5017811927006025,0.5891294857242644,0.5003104786634658,0.49928848639622425,0.4135404364919455,0.4407825904994767,0.6296039666166022
0.6467499999999999,0.6305,0.67375,0.60675,0.7,0.565,0.8615,0.7977500000000001,0.7765000000000001,0.6925,0.745,0.60675,0.49418492971273903,0.501868506068279,0.5891207543874968,0.5002199223866216,0.4994178525060016,0.4135404364919455,0.4407825904994767,0.6296039666166022
0.647,0.63075,0.67375,0.607,0.7,0.565,0.861,0.7985,0.77725,0.6925,0.745,0.607,0.4941063476818301,0.5017899240373701,0.5890683663668907,0.5001293661097774,0.4994566623389349,0.41749779354778255,0.4451300680851802,0.6163764496718831
0.64725,0.631,0.67375,0.6072500000000001,0.7,0.565,0.8604999999999999,0.79925,0.778,0.6925,0.745,0.6072500000000001,0.4941412730289007,0.5018248493844407,0.5890858290404261,0.49997412677804454,0.4994695989499126,0.43339587505406363,0.4479950059444254,0.5620285196282832
0.6475,0.63125,0.67375,0.6075,0.7,0.565,0.86,0.8,0.77875,0.6925,0.745,0.6075,0.4939753776303152,0.5018772374050467,0.5891382170610321,0.4998447606682671,0.49948253556089034,0.4294791010400453,0.44992608518061367,0.5546835442053261
0.6475,0.63125,0.67375,0.6075,0.7,0.565,0.86,0.8,0.77875,0.6925,0.745,0.6075,0.493853138915568,0.5019296254256527,0.5890770977036585,0.49966364811457875,0.49966364811457875,0.4294791010400453,0.44992608518061367,0.5546835442053261
0.6475,0.63125,0.67375,0.6075,0.7,0.565,0.86,0.8,0.77875,0.6925,0.745,0.6075,0.49387933292587094,0.5018335807212084,0.5892080677551733,0.49943078912962513,0.49997412677804454,0.42562164584471396,0.4561934124596969,0.5292637582307004
0.64775,0.6317499999999999,0.674,0.60775,0.70025,0.5660000000000001,0.86,0.80025,0.7797499999999999,0.69325,0.7452500000000001,0.608,0.49390552693617396,0.5019034314153497,0.5893041124596176,0.4987839585933838,0.5006727037581968,0.42562164584471396,0.4561934124596969,0.5292637582307004
0.648,0.63225,0.67425,0.608,0.7005,0.5670000000000001,0.86,0.8005,0.78075,0.6940000000000001,0.7454999999999999,0.6085,0.4938880642626386,0.5018859687418143,0.58929538112285,0.498163001279098,0.5013065976834603,0.42566535252886495,0.46150441602821274,0.5208959947207106
0.64825,0.63275,0.6745,0.6082500000000001,0.70075,0.568,0.86,0.8007500000000001,0.78175,0.69475,0.74575,0.609,0.49379201955819435,0.5017462673535318,0.5893390378066882,0.4975032340939417,0.5020569211075236,0.4139681080979577,0.46824992016731354,0.4885649981730208
0.6485,0.63325,0.67475,0.6085,0.701,0.569,0.86,0.8009999999999999,0.7827500000000001,0.6955,0.746,0.6095,0.4936785121802148,0.5016152973020169,0.5895049332052738,0.497089262542654,0.5026778784344552,0.39446853383096075,0.4822384974235521,0.4444885155924901
0.64925,0.6345000000000001,0.6757500000000001,0.60975,0.7020000000000001,0.5710000000000001,0.86175,0.8015000000000001,0.785,0.6975,0.747,0.612,0.4935038854448616,0.5016152973020169,0.5894176198375971,0.49667529099136626,0.5033635188542127,0.38811939047163896,0.4831958654635951,0.4328799620433634
0.6497499999999999,0.63525,0.6765000000000001,0.61075,0.7027500000000001,0.5720000000000001,0.8634999999999999,0.80175,0.78625,0.69875,0.74775,0.614,0.4933991094036497,0.5015454466078757,0.5895049332052738,0.49673997403360926,0.5038551100966583,0.36857611559761627,0.4942893633512437,0.39894337757166504
0.6502500000000001,0.636,0.6772499999999999,0.61175,0.7034999999999999,0.573,0.8652500000000001,0.802,0.7875,0.7,0.7484999999999999,0.616,0.4933729153933467,0.5015192525975727,0.5896970226141622,0.4967529106319412,0.5044890040219219,0.36222072495362995,0.49573154034366296,0.38571242137948714
0.65075,0.6367499999999999,0.6779999999999999,0.61275,0.7042499999999999,0.574,0.867,0.8022499999999999,0.78875,0.70125,0.74925,0.618,0.4934602287610233,0.5016065659652493,0.5899240373701213,0.49652005165963337,0.5051746443910964,0.36222072495362995,0.49573154034366296,0.38571242137948714
0.65125,0.6375,0.67875,0.61375,0.705,0.575,0.86875,0.8025,0.79,0.7025,0.75,0.62,0.4933379900462761,0.5015978346284816,0.5900288134113333,0.4960802068610987,0.5060025874936719,0.3456400060552475,0.511176603106514,0.34869764343378284
0.65125,0.6375,0.67875,0.61375,0.705,0.575,0.86875,0.8025,0.79,0.7025,0.75,0.62,0.49352134811839693,0.5014668645769668,0.5901510521260805,0.495601552267568,0.5070375163718912,0.3456400060552475,0.511176603106514,0.34869764343378284
0.65125,0.6375,0.67875,0.61375,0.705,0.575,0.86875,0.8025,0.79,0.7025,0.75,0.62,0.49343403475072034,0.501458133240199,0.5901073954422422,0.4951746441179483,0.5085122900992282,0.3168381033802854,0.5208033942628559,0.2903872676200478
0.6517499999999999,0.638,0.679,0.614,0.7055,0.5760000000000001,0.87175,0.8029999999999999,0.795,0.7070000000000001,0.75425,0.63125,0.4932943333624378,0.5011438051165633,0.5901685147996159,0.49486416540389955,0.5102587326950349,0.28266312264932997,0.516871805886039,0.21385301369893026
0.65225,0.6385000000000001,0.67925,0.61425,0.706,0.5770000000000001,0.8747499999999999,0.8035,0.8,0.7115,0.7585,0.6425,0.4931022439535493,0.5007508949620186,0.5900462760848686,0.49487710200223156,0.5119275554985178,0.2655210050057888,0.5071852658795323,0.19284526669911484
0.65275,0.639,0.6795,0.6145,0.7065,0.578,0.87775,0.804,0.805,0.716,0.76275,0.65375,0.4931895573212259,0.5001309700515149,0.5918187374487034,0.49514877087070136,0.5137904273781465,0.2655210050057888,0.5071852658795323,0.19284526669911484
0.65325,0.6395000000000001,0.67975,0.61475,0.7070000000000001,0.579,0.88075,0.8045,0.81,0.7204999999999999,0.767,0.665,0.49188858814284464,0.4966122413341483,0.5975115690212172,0.49736093130995784,0.5162483834892088,0.1984900045572361,0.4529189834100761,0.06872092390082672
0.65375,0.64,0.68,0.615,0.7075,0.58,0.88375,0.805,0.815,0.725,0.77125,0.67625,0.4923950056753689,0.4941412730289007,0.6021828341919148,0.5017335058963088,0.5215006474702972,0.17594671430808675,0.42725865583332895,0.03521619296563385
0.65375,0.64,0.68,0.615,0.7075,0.58,0.88375,0.805,0.815,0.725,0.77125,0.67625,0.4914782153147647,0.49257836374748976,0.6019907447830263,0.5041914620073711,0.527554981559629,0.17594671430808675,0.42725865583332895,0.03521619296563385
0.65375,0.64,0.68,0.615,0.7075,0.58,0.88375,0.805,0.815,0.725,0.77125,0.67625,0.4909717977822405,0.4927966471666812,0.6023138042434296,0.5047736095140152,0.5336610618399568,0.17448728662377952,0.43451246033611146,0.033154571622755445
0.65425,0.64075,0.6807500000000001,0.6154999999999999,0.708,0.581,0.888,0.8077500000000001,0.8195,0.731,0.7747499999999999,0.68825,0.49067493233214005,0.49261328909456037,0.6001920894088885,0.5066494180931419,0.5385769744667452,0.1803936627981916,0.4422454560189194,0.024623932387938422
0.6547499999999999,0.6415000000000001,0.6815000000000001,0.616,0.7084999999999999,0.5820000000000001,0.89225,0.8105,0.8240000000000001,0.737,0.77825,0.70025,0.49888238889373965,0.48939142582729417,0.5920544835414302,0.5053040105514568,0.5412289792492896,0.1803936627981916,0.4422454560189194,0.024623932387938422
0.6552500000000001,0.64225,0.6822499999999999,0.6164999999999999,0.7090000000000001,0.583,0.8965000000000001,0.81325,0.8284999999999999,0.743,0.78175,0.7122499999999999,0.5006635815943421,0.48716493495154106,0.5889897843359818,0.49381630030672063,0.537787840653336,0.17745920744929136,0.4412778727560758,0.021821073191896277
0.65575,0.643,0.6829999999999999,0.617,0.7095,0.584,0.90075,0.816,0.833,0.7490000000000001,0.78525,0.72425,0.5068279053523095,0.48462411595215227,0.5916353793765825,0.4807244498454977,0.5286675296737593,0.1720705233358871,0.4403087590103802,0.019318001732684678
0.65625,0.64375,0.68375,0.6175,0.71,0.585,0.905,0.81875,0.8375,0.755,0.78875,0.73625,0.5136645420413866,0.4828429232515498,0.5912773945691085,0.4701034921189606,0.5149029756946087,0.164704725554293,0.445140541389403,0.01490055636508869
0.657,0.64425,0.68425,0.61775,0.7105,0.5855,0.90675,0.82125,0.8390000000000001,0.75725,0.78975,0.73775,0.5201606565965249,0.48174277481882477,0.5915393346721383,0.45800776074096095,0.5019534277138719,0.16422761653510398,0.4465898726389189,0.014156586469030136
0.6577500000000001,0.6447499999999999,0.68475,0.618,0.711,0.586,0.9085,0.82375,0.8405,0.7595000000000001,0.7907500000000001,0.73925,0.5166419278791583,0.48759277045315635,0.5926569457783987,0.44794307732440386,0.4871927551573278,0.16422761653510398,0.4465898726389189,0.014156586469030136
0.6585,0.6452500000000001,0.68525,0.6182500000000001,0.7115,0.5865,0.91025,0.82625,0.8420000000000001,0.7617499999999999,0.79175,0.74075,0.5162228237143107,0.4935126167816293,0.5888413516109317,0.4459249659612933,0.4750582143889961,0.15293879745482702,0.4615797337902135,0.0070828230658542745
0.65925,0.64575,0.6857500000000001,0.6185,0.7120000000000001,0.5870000000000001,0.912,0.82875,0.8434999999999999,0.764,0.7927500000000001,0.74225,0.5118309613201781,0.5004802235222212,0.5841264297563957,0.4480853798048898,0.46785252228937196,0.1205661218868331,0.48237253171002914,0.003244273021614824
0.66,0.64625,0.68625,0.61875,0.7125,0.5875,0.91375,0.83125,0.845,0.76625,0.79375,0.74375,0.5064611892080677,0.5049593992840303,0.5820309089321575,0.4495860264253929,0.4651099610150058,0.12500370552706627,0.4809226902995626,0.0032471976847001038
0.66,0.64625,0.68625,0.61875,0.7125,0.5875,0.91375,0.83125,0.845,0.76625,0.79375,0.74375,0.49927529904828427,0.5106696935300794,0.579944119444687,0.45397153761007586,0.4632600255313771,0.12500370552706627,0.4809226902995626,0.0032471976847001038
0.66,0.64625,0.68625,0.61875,0.7125,0.5875,0.91375,0.83125,0.845,0.76625,0.79375,0.74375,0.49432463110102154,0.5152012573124946,0.5786431502663058,0.45989650551375577,0.4654721857683016,0.12056923945204022,0.47802198715672806,0.0026578552749743608
0.66,0.64625,0.68625,0.61875,0.7125,0.5875,0.91375,0.83125,0.845,0.76625,0.79375,0.74375,0.4909019470880992,0.5171308827381472,0.5771675543525714,0.4673350565351047,0.47090556212603796,0.12351618329314429,0.481405968769087,0.0036890684016424374
0.66,0.6465000000000001,0.6865000000000001,0.61875,0.713,0.5875,0.915,0.8322499999999999,0.8447499999999999,0.767,0.79425,0.7445,0.48905090369335547,0.5176896882912774,0.5750109141709596,0.4743208269183318,0.47755497994097346,0.12351618329314429,0.481405968769087,0.0036890684016424374
0.66,0.6467499999999999,0.68675,0.61875,0.7134999999999999,0.5875,0.91625,0.83325,0.8445,0.76775,0.79475,0.7452500000000001,0.48779359119881255,0.5184842399371343,0.5741115864838907,0.48244501896643405,0.48569210803099494,0.12450786680813399,0.4818887430795541,0.002948792718898739
0.66,0.647,0.687,0.61875,0.7140000000000001,0.5875,0.9175,0.8342499999999999,0.84425,0.7685,0.79525,0.746,0.4893826944905265,0.517646031607439,0.5757792718065136,0.4906338938038644,0.49272962455463504,0.12105883696343316,0.4809206496557599,0.0020693038177215647
0.66,0.64725,0.6872499999999999,0.61875,0.7145,0.5875,0.91875,0.83525,0.8440000000000001,0.76925,0.7957500000000001,0.74675,0.4917576180913298,0.5157600628656247,0.5789050903693356,0.4996248384460402,0.4962095730467506,0.123020344574212,0.48043839150813694,0.0023597694817591376
0.66,0.6475,0.6875,0.61875,0.715,0.5875,0.92,0.83625,0.84375,0.77,0.79625,0.7475,0.4935911988125382,0.511603946564219,0.5831747140487209,0.5082276847335923,0.4918887451572255,0.12400890444686945,0.47947080824529326,0.0005905632681310511
0.66,0.6475,0.6875,0.61875,0.715,0.5875,0.92,0.83625,0.84375,0.77,0.79625,0.7475,0.49300619924910505,0.5058499956343316,0.5873919497075002,0.5153557571926415,0.4841397155735767,0.12057548673670472,0.47947080824529326,0.0017686134645395354
0.66,0.6475,0.6875,0.61875,0.715,0.5875,0.92,0.83625,0.84375,0.77,0.79625,0.7475,0.49050030559678687,0.4997118658866673,0.5896620972670916,0.5197024584811625,0.4745019400537245,0.12302970942408359,0.48043992199098895,0.002806057435629838
0.66,0.6475,0.6875,0.61875,0.715,0.5875,0.92,0.83625,0.84375,0.77,0.79625,0.7475,0.48515672749497946,0.49438575045839517,0.5891556797345674,0.5203234157069281,0.46553686825413176,0.12302970942408359,0.48043992199098895,0.002806057435629838
0.66025,0.64775,0.6875,0.61875,0.71525,0.5875,0.9207500000000001,0.83675,0.8434999999999999,0.7702500000000001,0.7959999999999999,0.74775,0.4782764341220641,0.4910765738234524,0.5877062778311359,0.5177490301097118,0.46014230159022546,0.12351930693547655,0.481405968769087,0.002505970067391886
0.6605,0.648,0.6875,0.61875,0.7155,0.5875,0.9215000000000001,0.8372499999999999,0.84325,0.7705,0.7957500000000001,0.748,0.4721033790273291,0.4905177682703222,0.5862132192438663,0.5138680467658066,0.45943078797380393,0.12154219326728673,0.48188925324050486,0.0014805997531681118
0.6607500000000001,0.64825,0.6875,0.61875,0.71575,0.5875,0.9222499999999999,0.8377500000000001,0.843,0.77075,0.7955,0.7482500000000001,0.4673622631624902,0.4922814982973893,0.5853138915567974,0.5108667531201365,0.46166882120506053,0.12351618329314429,0.4789895704195717,0.0025145365479401164
0.6609999999999999,0.6485,0.6875,0.61875,0.716,0.5875,0.9229999999999999,0.83825,0.8427500000000001,0.7709999999999999,0.79525,0.7484999999999999,0.46330219156552865,0.49576530166768534,0.5847812800139701,0.5090815008304997,0.46580853712260156,0.12351618329314429,0.4789895704195717,0.0025145365479401164
0.66125,0.64875,0.6875,0.61875,0.71625,0.5875,0.92375,0.83875,0.8425,0.77125,0.795,0.74875,0.46087487994411946,0.4996594778660613,0.5841875491137694,0.5081759381379324,0.4713971534696496,0.12352555422014107,0.4828558101795535,0.0036912011817224447
0.66125,0.64875,0.6875,0.61875,0.71625,0.5875,0.92375,0.83875,0.8425,0.77125,0.795,0.74875,0.459862044879071,0.5033266393084781,0.583427922814983,0.5084087971102402,0.4784217330408768,0.1205661218868331,0.4828558101795535,0.0025084220200580357
0.66125,0.64875,0.6875,0.61875,0.71625,0.5875,0.92375,0.83875,0.8425,0.77125,0.795,0.74875,0.45907622456998165,0.5070898454553392,0.5824936697808434,0.5096507117641034,0.48785252222867237,0.11558586920118437,0.52543707214189,0.038661100852602284
0.66125,0.64875,0.6875,0.61875,0.71625,0.5875,0.92375,0.83875,0.8425,0.77125,0.795,0.74875,0.4709944992578364,0.5005064175325242,0.5876626211472976,0.5153945666841395,0.5019146186776205,0.12881746011537173,0.5138352798924533,0.043811218523346115
0.66125,0.649,0.6877500000000001,0.619,0.71625,0.588,0.92425,0.8384999999999999,0.8434999999999999,0.77125,0.79525,0.7484999999999999,0.4776565092115603,0.49796559853313543,0.5921767222561775,0.5171021993837843,0.5109573097131244,0.1405833821377126,0.5148079707666972,0.0513178990614705
0.66125,0.64925,0.688,0.61925,0.71625,0.5885,0.92475,0.83825,0.8445,0.77125,0.7955,0.7482500000000001,0.48437090718589015,0.49662097267091593,0.5940976163450624,0.5165976715430066,0.5126649423116032,0.14841693016574928,0.5293252728303253,0.0661696732001568
0.6607500000000001,0.64875,0.6877500000000001,0.6195,0.71625,0.5885,0.92125,0.83575,0.8420000000000001,0.7667499999999999,0.7927500000000001,0.74175,0.49105911114991707,0.49443813847900114,0.5958089583515236,0.516080207103897,0.5134928854141787,0.14841693016574928,0.5293252728303253,0.0661696732001568
0.66025,0.64825,0.6875,0.61975,0.71625,0.5885,0.9177500000000001,0.83325,0.8395,0.76225,0.79,0.7352500000000001,0.49752030035798483,0.4921592595826421,0.597694927093338,0.5145536869832321,0.5119146189001857,0.15036282564199202,0.5293303804417255,0.07058025868348151
0.65975,0.64775,0.6872499999999999,0.62,0.71625,0.5885,0.91425,0.83075,0.8370000000000001,0.75775,0.7872499999999999,0.72875,0.49167903606042085,0.49958089583515236,0.5934514974242556,0.5085769730908881,0.504385511083517,0.18905030881215354,0.5109764459589355,0.10664667716985794
0.65925,0.647,0.68675,0.62,0.71625,0.588,0.91025,0.8284999999999999,0.8334999999999999,0.75325,0.78425,0.7225,0.49188858814284464,0.5013708198725225,0.5900724700951716,0.5069210867845713,0.5004010348770812,0.19689009804772958,0.5032429341132835,0.11298030260907362
0.65875,0.64625,0.68625,0.62,0.71625,0.5875,0.90625,0.82625,0.83,0.74875,0.78125,0.71625,0.4921854535929451,0.501178730463634,0.5895049332052738,0.5068175938967493,0.5016558861798593,0.20275276753799062,0.4916406317028959,0.12107961684974355
0.65875,0.64625,0.68625,0.62,0.71625,0.5875,0.90625,0.82625,0.83,0.74875,0.78125,0.71625,0.4920981402252685,0.5011001484327251,0.5894088885008295,0.5057826650691131,0.5012289780302397,0.20275276753799062,0.4916406317028959,0.12107961684974355
0.65875,0.64625,0.68625,0.62,0.71625,0.5875,0.90625,0.82625,0.83,0.74875,0.78125,0.71625,0.4922029162664804,0.5011176111062604,0.5891382170610321,0.5048900389748776,0.5004010349276642,0.26008549664302644,0.4631373031877827,0.1673251618960139
0.6579999999999999,0.6455,0.6857500000000001,0.6195,0.7155,0.58625,0.904,0.82475,0.82875,0.7465,0.7795000000000001,0.713,0.4923513489915306,0.5009953723915131,0.588858814284467,0.504346701237938,0.4996895213112427,0.26301058714205505,0.45540124653927067,0.1721714803050908
0.6572499999999999,0.6447499999999999,0.68525,0.619,0.71475,0.585,0.9017499999999999,0.82325,0.8275,0.74425,0.77775,0.70975,0.4925434384004191,0.5008644023399983,0.5888151576006286,0.504256145049614,0.4994049158697324,0.26348457251891183,0.4520208360535666,0.1801225812187174
0.6565000000000001,0.644,0.68475,0.6185,0.7140000000000001,0.58375,0.8995000000000001,0.82175,0.82625,0.742,0.7759999999999999,0.7065,0.4927442591460753,0.5007334322884833,0.5889199336418406,0.5047736094887237,0.49954721860313334,0.27965062485912456,0.445742783390732,0.19587094930370771
0.65575,0.64325,0.68425,0.618,0.71325,0.5825,0.89725,0.82025,0.825,0.7397499999999999,0.77425,0.70325,0.4929450798917314,0.5007596262987863,0.5891032917139614,0.5053557569700763,0.4998447606682671,0.2855257828415895,0.4442995800745177,0.20455439590363744
0.655,0.6425,0.68375,0.6175,0.7125,0.58125,0.895,0.81875,0.82375,0.7375,0.7725,0.7,0.4928839605343578,0.500742163625251,0.5893041124596176,0.505860284810854,0.5003622251200225,0.2855257828415895,0.4442995800745177,0.20455439590363744
0.655,0.6425,0.68375,0.6175,0.7125,0.58125,0.895,0.81875,0.82375,0.7375,0.7725,0.7,0.49263948310486333,0.5008120143193923,0.5893826944905265,0.5063130662583036,0.5006080207412453,0.3036314833733806,0.45398817272861414,0.2348625445292052
0.655,0.6425,0.68375,0.6175,0.7125,0.58125,0.895,0.81875,0.82375,0.7375,0.7725,0.7,0.49225530428708636,0.5008905963503012,0.5892255304287086,0.5065976716239394,0.5001940491899576,0.3036314833733806,0.45398817272861414,0.2348625445292052
0.6547499999999999,0.6415000000000001,0.6829999999999999,0.61675,0.71175,0.57875,0.89325,0.8175,0.82175,0.7345,0.7715000000000001,0.69675,0.49191478215314766,0.5010477604121191,0.5890247096830525,0.5068434671945793,0.4993531694890502,0.3085087166333164,0.4554466928771358,0.24678721200473644
0.6545000000000001,0.6405,0.6822499999999999,0.616,0.711,0.57625,0.8915000000000001,0.81625,0.81975,0.7315,0.7705,0.6934999999999999,0.4918449314590064,0.5012223871474722,0.5886841875491138,0.5071021993635512,0.4983053040124989,0.3290499162298682,0.4424088455666878,0.282551735098575
0.65425,0.6395000000000001,0.6815000000000001,0.61525,0.71025,0.57375,0.8897499999999999,0.815,0.8177500000000001,0.7284999999999999,0.7695000000000001,0.69025,0.49182746878547107,0.5014144765563607,0.5885095608137606,0.5073609315325229,0.4973221216161278,0.3290499162298682,0.4424088455666878,0.282551735098575
0.654,0.6385000000000001,0.6807500000000001,0.6145,0.7095,0.57125,0.888,0.81375,0.81575,0.7254999999999999,0.7685,0.687,0.49194970750021827,0.5015716406181786,0.58847463546669,0.5075937905048308,0.4966106080502893,0.3363938606693868,0.43371133358863384,0.2956593343430714
0.65375,0.6375,0.68,0.61375,0.70875,0.56875,0.88625,0.8125,0.81375,0.7225,0.7675,0.68375,0.49215052824587446,0.5017113420064612,0.5886143368549726,0.5075291075131708,0.4961060802600946,0.3363938606693868,0.43371133358863384,0.2956593343430714
0.65375,0.6375,0.68,0.61375,0.70875,0.56875,0.88625,0.8125,0.81375,0.7225,0.7675,0.68375,0.4923338863179953,0.5017375360167642,0.5886929188858814,0.5074514879231788,0.4957826649982969,0.42507949943206225,0.38057092832217637,0.37487333710361465
0.65375,0.6375,0.68,0.61375,0.70875,0.56875,0.88625,0.8125,0.81375,0.7225,0.7675,0.68375,0.4924386623592072,0.5017200733432289,0.5887103815594168,0.507347995136523,0.49570504530713894,0.4383017254963781,0.38009887939546044,0.3893020707774088
0.65375,0.6375,0.68,0.61375,0.70875,0.56875,0.88625,0.8125,0.81375,0.7225,0.7675,0.68375,0.4925696324107221,0.5016502226490875,0.588806426263861,0.5071151361642151,0.4958990944338678,0.4515301988453584,0.377205324507829,0.4047527839056485
0.65375,0.6375,0.68,0.61375,0.70875,0.56875,0.88625,0.8125,0.81375,0.7225,0.7675,0.68375,0.49264821444163104,0.5015279839343404,0.5889723216624465,0.5068305306974132,0.49627425608899356,0.4740453884677677,0.3791609094753304,0.434327864751832
0.6525,0.63625,0.67875,0.61275,0.7072499999999999,0.5670000000000001,0.884,0.81175,0.8125,0.7202500000000001,0.767,0.6807500000000001,0.49266567711516634,0.501510521260805,0.5891731424081027,0.5066364815201014,0.4968305303230992,0.4740453884677677,0.3791609094753304,0.434327864751832
0.65125,0.635,0.6775,0.61175,0.70575,0.56525,0.8817499999999999,0.8109999999999999,0.81125,0.718,0.7665000000000001,0.6777500000000001,0.49256090107395445,0.5016676853226228,0.5893128437963853,0.5062354465671457,0.4975032340560045,0.48086852328107144,0.38062197442671186,0.45036105761392925
0.65,0.63375,0.67625,0.61075,0.7042499999999999,0.5635,0.8795000000000001,0.81025,0.81,0.71575,0.7659999999999999,0.67475,0.49259582642102506,0.5018597747315114,0.5895573212258797,0.50583441161419,0.49816300121586926,0.5063212918947133,0.3854797990217934,0.4812593098246614
0.64875,0.6325,0.675,0.60975,0.7027500000000001,0.56175,0.87725,0.8095,0.80875,0.7134999999999999,0.7655,0.67175,0.49263948310486333,0.5019907447830263,0.5896795599406269,0.5054204400629022,0.4987192754879121,0.5332303949359559,0.38453059355696123,0.5167294525049875
0.6475,0.63125,0.67375,0.60875,0.70125,0.56,0.875,0.80875,0.8075,0.71125,0.765,0.66875,0.492622020431328,0.502305072906662,0.5896359032567886,0.5049547221182865,0.4990556273986249,0.5332303949359559,0.38453059355696123,0.5167294525049875
0.6475,0.63125,0.67375,0.60875,0.70125,0.56,0.875,0.80875,0.8075,0.71125,0.765,0.66875,0.4925434384004191,0.5024622369684799,0.589496201868506,0.5044890040725049,0.4993661060620907,0.5405649745256029,0.3797080060788378,0.533071418324008
0.6475,0.63125,0.67375,0.60875,0.70125,0.56,0.875,0.80875,0.8075,0.71125,0.765,0.66875,0.4924561250327425,0.5023225355801973,0.5894350825111324,0.5040362226756382,0.4994566623389349,0.6046833790444558,0.3463902286532378,0.6162335441011993
0.6475,0.63125,0.67375,0.60875,0.70125,0.56,0.875,0.80875,0.8075,0.71125,0.765,0.66875,0.49221164760324804,0.5023749236008033,0.5892517244390116,0.5034928849892816,0.4994695989499126,0.6159534623478644,0.34687912489511313,0.6250640036414783
0.6467499999999999,0.6305,0.6727500000000001,0.608,0.70025,0.5585,0.875,0.8085,0.8057500000000001,0.71,0.7635,0.66625,0.49194970750021827,0.5024709683052475,0.5891032917139614,0.5030271669940829,0.4994307891169794,0.6267089772325974,0.3367307511846912,0.6423021139596917
0.6459999999999999,0.62975,0.67175,0.6072500000000001,0.6992499999999999,0.557,0.875,0.80825,0.804,0.70875,0.762,0.66375,0.491879856806077,0.502278878896359,0.5890334410198201,0.5024062096545056,0.4994049158950239,0.6301236652430191,0.32948001364950624,0.6493663673225458
0.6452500000000001,0.629,0.6707500000000001,0.6065,0.69825,0.5555,0.875,0.8079999999999999,0.8022499999999999,0.7075,0.7605,0.66125,0.4919409761634506,0.5022090282022178,0.588858814284467,0.5018499354077542,0.49917205689742455,0.6384592931975274,0.32029666039338756,0.6526059281284863
0.6445000000000001,0.62825,0.66975,0.60575,0.6972499999999999,0.5539999999999999,0.875,0.8077500000000001,0.8005,0.70625,0.759,0.65875,0.49208940888850083,0.5022177595389854,0.5888326202741639,0.501423027232843,0.49922380334133554,0.6423635726422167,0.31691114829817657,0.658215301651528
0.64375,0.6275,0.66875,0.605,0.69625,0.5525,0.875,0.8075,0.79875,0.705,0.7575,0.65625,0.49231642364446,0.5021304461713089,0.58888500829477,0.5011254851677093,0.4993661060620907,0.632028977677443,0.30626519360593074,0.6599824365002092
0.64375,0.6275,0.66875,0.605,0.69625,0.5525,0.875,0.8075,0.79875,0.705,0.7575,0.65625,0.49255216973718674,0.5020518641403999,0.58888500829477,0.5008279431025754,0.4995213453938236,0.6236871085153953,0.308196272842119,0.6599937285099261
0.64375,0.6275,0.66875,0.605,0.69625,0.5525,0.875,0.8075,0.79875,0.705,0.7575,0.65625,0.4926045577577927,0.5021129834977736,0.58888500829477,0.5007244502147535,0.49970245794751195,0.6094544753134717,0.3067403034983507,0.6514615166754862
0.64375,0.6275,0.66875,0.605,0.69625,0.5525,0.875,0.8075,0.79875,0.705,0.7575,0.65625,0.4925085130533485,0.5021479088448442,0.5889024709683053,0.5007244502147535,0.4999094437231558,0.6094544753134717,0.3067403034983507,0.6514615166754862
0.643,0.627,0.66825,0.60525,0.69625,0.552,0.8740000000000001,0.807,0.7972499999999999,0.7042499999999999,0.757,0.6552500000000001,0.4924823190430455,0.5022963415698943,0.5888500829476992,0.5008796895464864,0.49975420439142293,0.606024175168514,0.305285870639328,0.6489629973803898
0.64225,0.6265,0.6677500000000001,0.6054999999999999,0.69625,0.5515,0.873,0.8065000000000001,0.7957500000000001,0.7034999999999999,0.7565000000000001,0.65425,0.4923862743386012,0.5022439535492884,0.5887627695800227,0.5010219922798873,0.4995601552267568,0.6045553887114605,0.3047985048803047,0.6464615562138046
0.6415000000000001,0.626,0.6672499999999999,0.60575,0.69625,0.551,0.872,0.8059999999999999,0.79425,0.7027500000000001,0.7559999999999999,0.65325,0.49227276696062167,0.502252684886056,0.588806426263861,0.5011642950132882,0.499314359605534,0.599163580955724,0.299474759291809,0.641905992864317
0.64075,0.6255,0.66675,0.606,0.69625,0.5505,0.871,0.8055,0.7927500000000001,0.7020000000000001,0.7555,0.65225,0.4922291102767834,0.502305072906662,0.588780232253558,0.5013712808015778,0.4989780077201127,0.5957270396032269,0.2980228772375397,0.6380780471664091
0.64,0.625,0.66625,0.60625,0.69625,0.55,0.87,0.805,0.79125,0.70125,0.755,0.65125,0.49225530428708636,0.502305072906662,0.5888675456212347,0.5013583441906001,0.49864165583469144,0.5957270396032269,0.2980228772375397,0.6380780471664091
0.64,0.625,0.66625,0.60625,0.69625,0.55,0.87,0.805,0.79125,0.70125,0.755,0.65125,0.492264035623854,0.502357460927268,0.5889199336418406,0.5012548513027781,0.4985252263485375,0.5942582531461732,0.30285619009941445,0.6349919320707534
0.64,0.62525,0.66625,0.60625,0.696,0.55,0.8697499999999999,0.80525,0.7909999999999999,0.701,0.7545000000000001,0.6509999999999999,0.492290229634157,0.5025320876626211,0.5889985156727495,0.5011384217913327,0.4984087968623836,0.5942582531461732,0.30285619009941445,0.6349919320707534
0.64,0.6255,0.66625,0.60625,0.69575,0.55,0.8695,0.8055,0.7907500000000001,0.70075,0.754,0.65075,0.4922291102767834,0.5025757443464595,0.5889286649786082,0.5009443726140208,0.4983570504184726,0.5957395280954308,0.3014048182060958,0.6320512582463566
0.64,0.62575,0.66625,0.60625,0.6955,0.55,0.86925,0.8057500000000001,0.7905,0.7005,0.7535,0.6505,0.4922814982973893,0.5026543263773684,0.5890247096830525,0.5006856403818203,0.4983570504184726,0.593288422973259,0.3076884826393879,0.6289652771473552
0.64,0.626,0.66625,0.60625,0.69525,0.55,0.8690000000000001,0.8059999999999999,0.79025,0.70025,0.753,0.6502500000000001,0.4921854535929451,0.5026717890509037,0.5890509036933554,0.5004657179951987,0.49831824057289364,0.6006448559049815,0.30671732824988956,0.6235057277028047
0.64,0.62625,0.66625,0.60625,0.695,0.55,0.86875,0.80625,0.79,0.7,0.7525,0.65,0.49208940888850083,0.5025495503361564,0.5890945603771938,0.5002457956085771,0.4983699870168046,0.5986895955788671,0.3081671696603562,0.6223350240590715
0.64,0.62625,0.66625,0.60625,0.695,0.55,0.86875,0.80625,0.79,0.7,0.7525,0.65,0.49208940888850083,0.5024971623155505,0.5892517244390116,0.49997412677804454,0.49847347990462654,0.5986895955788671,0.3081671696603562,0.6223350240590715
0.64,0.62625,0.66625,0.60625,0.695,0.55,0.86875,0.80625,0.79,0.7,0.7525,0.65,0.4921417969091068,0.5025233563258535,0.5893565004802235,0.4997800776133784,0.49861578263802747,0.5967312055332953,0.3052628893889733,0.6143851421427854
0.64,0.62625,0.66625,0.60625,0.695,0.55,0.86875,0.80625,0.79,0.7,0.7525,0.65,0.4921330655723391,0.5024273116214092,0.5893652318169912,0.49935316945111297,0.4988227684136713,0.5967312055332953,0.3052628893889733,0.6143851421427854
0.6405,0.6265,0.66675,0.60625,0.69525,0.55025,0.86875,0.8065000000000001,0.79,0.69975,0.75275,0.65,0.49231642364446,0.5024971623155505,0.5893128437963853,0.4989262612888475,0.4990556274239164,0.5893747726015729,0.3057425967318429,0.6126199139548302
0.6409999999999999,0.6267499999999999,0.6672499999999999,0.60625,0.6955,0.5505,0.86875,0.80675,0.79,0.6995,0.753,0.65,0.4923862743386012,0.5025320876626211,0.5892342617654763,0.49849935312658206,0.4991720569100703,0.5854673695145513,0.3018661417490604,0.5975996427455648
0.6415000000000001,0.627,0.6677500000000001,0.60625,0.69575,0.5507500000000001,0.86875,0.807,0.79,0.6992499999999999,0.75325,0.65,0.4924211996856719,0.5025932070199948,0.5890683663668907,0.4980465717676526,0.499301423007202,0.5854673695145513,0.3018661417490604,0.5975996427455648
0.642,0.62725,0.66825,0.60625,0.696,0.551,0.86875,0.8072499999999999,0.79,0.6990000000000001,0.7535,0.65,0.4924823190430455,0.5025408189993888,0.5889548589889112,0.4975679171614762,0.49928848639622425,0.5830193880347118,0.3023453389309793,0.5905395014050379
0.6425,0.6275,0.66875,0.60625,0.69625,0.55125,0.86875,0.8075,0.79,0.69875,0.75375,0.65,0.49242993102243954,0.5025408189993888,0.5889461276521435,0.4975161707428567,0.4991849935084023,0.5830193880347118,0.3023453389309793,0.5905395014050379
0.6425,0.6275,0.66875,0.60625,0.69625,0.55125,0.86875,0.8075,0.79,0.69875,0.75375,0.65,0.49232515498122764,0.5025058936523181,0.5891207543874968,0.49743855110228175,0.4990944372315581,0.5644365724066064,0.30716335896812086,0.560067298070192
0.6425,0.6275,0.66875,0.60625,0.69625,0.55125,0.86875,0.8075,0.79,0.69875,0.75375,0.65,0.4922814982973893,0.5024971623155505,0.589216799091941,0.49728331177054885,0.49890038805424625,0.463127547492885,0.35834615662895486,0.43848035406844155
0.6425,0.6275,0.66875,0.60625,0.69625,0.55125,0.86875,0.8075,0.79,0.69875,0.75375,0.65,0.4921854535929451,0.5024011176111063,0.589190605081638,0.49717981888272694,0.4987322121115356,0.463127547492885,0.35834615662895486,0.43848035406844155
0.6435,0.62825,0.6695,0.60675,0.6970000000000001,0.55225,0.8697499999999999,0.8079999999999999,0.7907500000000001,0.70075,0.75425,0.6509999999999999,0.49221164760324804,0.502305072906662,0.5893652318169912,0.497089262593237,0.49853816294686953,0.463127547492885,0.35834615662895486,0.43848035406844155
0.6445000000000001,0.629,0.67025,0.6072500000000001,0.6977500000000001,0.55325,0.87075,0.8085,0.7915000000000001,0.7027500000000001,0.7547499999999999,0.652,0.4922465729503187,0.5022352222125207,0.5893914258272942,0.4967141008369453,0.4979689520385574,0.4229962426958273,0.3941027794859,0.38798139696160994
0.6455,0.62975,0.6709999999999999,0.60775,0.6984999999999999,0.55425,0.87175,0.809,0.7922499999999999,0.70475,0.7552500000000001,0.653,0.49232515498122764,0.5020955208242381,0.5893739631537589,0.4962225095944996,0.49763260012784466,0.4229962426958273,0.3941027794859,0.38798139696160994
0.6465000000000001,0.6305,0.67175,0.6082500000000001,0.6992499999999999,0.55525,0.87275,0.8095,0.7929999999999999,0.70675,0.75575,0.654,0.49244739369597484,0.5019820134462586,0.5893826944905265,0.4958085380432119,0.4973868045066218,0.4073291587940042,0.40424758206966716,0.3720924887190962
0.6475,0.63125,0.6725,0.60875,0.7,0.55625,0.87375,0.81,0.79375,0.70875,0.75625,0.655,0.49264821444163104,0.5020256701300969,0.5893914258272942,0.49508408782845836,0.49733505806271083,0.37113024014550094,0.44145453849234895,0.31923745076062643
0.6475,0.63125,0.6725,0.60875,0.7,0.55625,0.87375,0.81,0.79375,0.70875,0.75625,0.655,0.49261328909456037,0.5021042521610058,0.5894088885008295,0.49395860261016616,0.49745148754886476,0.37113024014550094,0.44145453849234895,0.31923745076062643
0.6475,0.63125,0.6725,0.60875,0.7,0.55625,0.87375,0.81,0.79375,0.70875,0.75625,0.655,0.4925259757268838,0.5021391775080765,0.5892517244390116,0.492716688057469,0.4978525225018205,0.35940801873018585,0.45208415603038604,0.30157243919892046
0.64825,0.6325,0.67375,0.6095,0.70175,0.55975,0.8765000000000001,0.8115000000000001,0.7977500000000001,0.713,0.75875,0.6629999999999999,0.4924823190430455,0.5020693268139352,0.5892866497860823,0.49138421711411595,0.4980206984824684,0.35940801873018585,0.45208415603038604,0.30157243919892046
0.649,0.63375,0.675,0.61025,0.7034999999999999,0.56325,0.87925,0.813,0.80175,0.7172499999999999,0.76125,0.6709999999999999,0.4926045577577927,0.5020518641403999,0.5893565004802235,0.49006468287026084,0.49822768428340375,0.23912962441117971,0.5651421486964923,0.1118280030335875
0.6497499999999999,0.635,0.67625,0.611,0.70525,0.56675,0.882,0.8145,0.8057500000000001,0.7215,0.76375,0.679,0.492264035623854,0.5013009691783812,0.5898279926656771,0.48897800749754755,0.49794307881660194,0.16176714656306054,0.5795986815880542,0.03412007148743836
0.6505,0.63625,0.6775,0.61175,0.7070000000000001,0.57025,0.8847499999999999,0.816,0.80975,0.72575,0.76625,0.687,0.49413254169213305,0.49828865799353883,0.589906574696586,0.48750323387137656,0.49746442422307124,0.15049081597498748,0.5689547735415046,0.026757161915056282
0.65125,0.6375,0.67875,0.6125,0.70875,0.57375,0.8875,0.8175,0.81375,0.73,0.76875,0.695,0.49558194359556446,0.4944294071422335,0.5909979917925434,0.4862354458185175,0.4968434668961397,0.15049081597498748,0.5689547735415046,0.026757161915056282
0.6525,0.63875,0.67975,0.613,0.70975,0.575,0.8925,0.82,0.8170000000000001,0.7354999999999999,0.7717499999999999,0.70375,0.49002881341133325,0.4913647079367851,0.5888326202741639,0.4904657176208846,0.4979301422182699,0.12498809946965533,0.5336380354638085,0.011323844158027545
0.65375,0.64,0.6807500000000001,0.6135,0.71075,0.57625,0.8975,0.8225,0.82025,0.741,0.7747499999999999,0.7125,0.48905090369335547,0.4904479175761809,0.5869291888588143,0.4847736086895125,0.5003104787140488,0.12498809946965533,0.5336380354638085,0.011323844158027545
0.655,0.64125,0.68175,0.614,0.71175,0.5775,0.9025,0.825,0.8234999999999999,0.7465,0.77775,0.72125,0.488448441456387,0.49009866410547454,0.5847201606565965,0.4791849927471284,0.502897801010763,0.11812750525686519,0.5167079061773199,0.006908029083058155
0.65625,0.6425,0.6827500000000001,0.6145,0.7127500000000001,0.57875,0.9075,0.8275,0.82675,0.752,0.78075,0.73,0.48637911464245176,0.4927791844931459,0.5820483716056928,0.47654592425941816,0.5069987067286441,0.11812750525686519,0.5167079061773199,0.006908029083058155
0.6575,0.64375,0.68375,0.615,0.71375,0.58,0.9125,0.83,0.83,0.7575,0.78375,0.73875,0.4867982188072994,0.497258360254955,0.5774556884659041,0.4741267780445178,0.5125873227721942,0.12352867178534815,0.4814008671595802,0.002067478113307528
0.6575,0.64375,0.68375,0.615,0.71375,0.58,0.9125,0.83,0.83,0.7575,0.78375,0.73875,0.4954073168602113,0.5023661922640357,0.5755347943770192,0.46694695898980876,0.5176714109243837,0.12352867178534815,0.4814008671595802,0.002067478113307528
0.6577500000000001,0.644,0.68375,0.6154999999999999,0.71375,0.5802499999999999,0.91375,0.83125,0.8305,0.759,0.78475,0.7397499999999999,0.5004802235222212,0.5066532786169563,0.5739718850956081,0.4733505814364363,0.5232600268667679,0.12598601811505927,0.4789844628081713,0.001620563911184715
0.6579999999999999,0.64425,0.68375,0.616,0.71375,0.5805,0.915,0.8325,0.831,0.7605,0.7857500000000001,0.74075,0.5055531301842312,0.5109403649698769,0.5724089758141971,0.47975420388306395,0.528848642809152,0.12500058188473404,0.4823704910662264,0.002362661576213181
0.65825,0.6445000000000001,0.68375,0.6164999999999999,0.71375,0.58075,0.91625,0.83375,0.8315,0.762,0.78675,0.74175,0.5098576792106871,0.5138391687767397,0.5717715882301581,0.48686933984494707,0.5342690830743863,0.12204739683609064,0.48043532454053933,0.0019188051032975645
0.6585,0.6447499999999999,0.68375,0.617,0.71375,0.581,0.9175,0.835,0.8320000000000001,0.7635,0.7877500000000001,0.74275,0.5116650659215926,0.5156640181611805,0.572539945865712,0.49536869334584316,0.5397024596344545,0.12057548673670472,0.4828537695357508,0.002360662792787415
0.65875,0.645,0.68375,0.6175,0.71375,0.58125,0.91875,0.83625,0.8325,0.765,0.78875,0.74375,0.5121452894438139,0.516214092377543,0.5736662883087401,0.5034411385959536,0.5439586046334856,0.12057548673670472,0.4828537695357508,0.002360662792787415
0.65875,0.645,0.68375,0.6175,0.71375,0.58125,0.91875,0.83625,0.8325,0.765,0.78875,0.74375,0.5047847725486772,0.5154631974155243,0.5783637474897407,0.5111642952864363,0.5341526533859003,0.10241983223609824,0.4673816502368332,0.009862599477138724
0.65875,0.6452500000000001,0.68375,0.61775,0.7142499999999999,0.581,0.919,0.8365,0.8334999999999999,0.7655,0.78925,0.7445,0.5003230594604033,0.5130795424779534,0.5813324019907448,0.5158214752384231,0.520181113428774,0.10241983223609824,0.4673816502368332,0.009862599477138724
0.65875,0.6455,0.68375,0.618,0.71475,0.58075,0.91925,0.83675,0.8345,0.7659999999999999,0.78975,0.7452500000000001,0.5017899240373701,0.5129049157426002,0.5960010477604121,0.5172962488645941,0.5087968955660299,0.09453321875116416,0.4514221651788923,0.01119110558348444
0.65875,0.64575,0.68375,0.6182500000000001,0.71525,0.5805,0.9195,0.8370000000000001,0.8355,0.7665000000000001,0.79025,0.746,0.4997642539072732,0.5119532000349254,0.6003230594604034,0.5156791724544392,0.4969857696548321,0.11120447466018082,0.44900269986177943,0.011642640809113926
0.65875,0.6459999999999999,0.68375,0.6185,0.71575,0.5802499999999999,0.91975,0.8372499999999999,0.8365,0.767,0.7907500000000001,0.74675,0.49642015192525973,0.5091853662795774,0.6037894001571641,0.5135963780490856,0.48617076282685756,0.10482411310891199,0.44030212091612786,0.01856492750839629
0.65875,0.64625,0.68375,0.61875,0.71625,0.58,0.92,0.8375,0.8375,0.7675,0.79125,0.7475,0.49931022439535494,0.5060682790535231,0.6027678337553479,0.5081630014890174,0.48773609279310143,0.10580330205457268,0.44465419595228095,0.0178310985535733
0.65875,0.64625,0.68375,0.61875,0.71625,0.58,0.92,0.8375,0.8375,0.7675,0.79125,0.7475,0.49941500043656684,0.5045402951191827,0.6036060420850432,0.5056274257373802,0.49354463116004443,0.10580330205457268,0.44465419595228095,0.0178310985535733
0.65875,0.64625,0.68375,0.61875,0.71625,0.58,0.92,0.8375,0.8375,0.7675,0.79125,0.7475,0.493800750894962,0.501562909281411,0.5921156028988038,0.5035058215370306,0.4957826647453819,0.10287508791321184,0.5210783590114845,0.031032768102008616
0.65875,0.64625,0.68375,0.61875,0.71625,0.58,0.92,0.8375,0.8375,0.7675,0.79125,0.7475,0.4923862743386012,0.4996245525189907,0.5907884397101196,0.5031047865840749,0.49742561439013805,0.1067700085851547,0.5254375823028407,0.04162314807388306
0.6585,0.64575,0.68375,0.61875,0.7155,0.57975,0.91675,0.835,0.835,0.764,0.7895,0.743,0.4921156028988038,0.4994848511307081,0.5902820221775954,0.5033764554019617,0.4984476066700253,0.11068365895684082,0.5244776634580443,0.05133448580009446
0.65825,0.6452500000000001,0.68375,0.61875,0.71475,0.5795,0.9135,0.8325,0.8325,0.7605,0.7877500000000001,0.7384999999999999,0.4923338863179953,0.49970313454989956,0.5899764253907274,0.5034928849386986,0.4993531694637587,0.10423149617180619,0.5080435786686341,0.0661935534511137
0.6579999999999999,0.6447499999999999,0.68375,0.61875,0.7140000000000001,0.5792499999999999,0.91025,0.83,0.83,0.757,0.7859999999999999,0.7340000000000001,0.49231642364446,0.4999126866323234,0.5896533659303239,0.5037516171582535,0.5002587322069091,0.10423149617180619,0.5080435786686341,0.0661935534511137
0.6577500000000001,0.64425,0.68375,0.61875,0.71325,0.579,0.907,0.8275,0.8275,0.7535,0.78425,0.7295,0.4922465729503187,0.5000436566838383,0.5897494106347682,0.5039197930883184,0.5009314359777516,0.10863474405488519,0.5065962880629209,0.07237196237703732
0.6575,0.64375,0.68375,0.61875,0.7125,0.57875,0.90375,0.825,0.825,0.75,0.7825,0.725,0.49208940888850083,0.5000349253470706,0.5896097092464856,0.5039844761811443,0.5013065976961061,0.10715346302850251,0.5085334952324109,0.07839909745511342
0.6575,0.64375,0.68375,0.61875,0.7125,0.57875,0.90375,0.825,0.825,0.75,0.7825,0.725,0.4920719462149655,0.5001746267353532,0.5895136645420413,0.5038421734983264,0.5012160414192619,0.11302237980342811,0.5090234117961876,0.0873802222751017
0.6575,0.64375,0.68375,0.61875,0.7125,0.57875,0.90375,0.825,0.825,0.75,0.7825,0.725,0.49203702086789486,0.5001920894088885,0.5894350825111324,0.5039456663355653,0.5009055627431503,0.11595995879466058,0.5061262857819012,0.09075960300654921
0.6575,0.64375,0.68375,0.61875,0.7125,0.57875,0.90375,0.825,0.825,0.75,0.7825,0.725,0.4920457522046625,0.5002881341133327,0.5890247096830525,0.5038680466949903,0.5003492884837533,0.11988297401621828,0.5061273061038026,0.0950349300338052
0.6572499999999999,0.64325,0.68325,0.6185,0.7125,0.578,0.9025,0.8240000000000001,0.8240000000000001,0.74875,0.7809999999999999,0.7232500000000001,0.49219418492971273,0.5003754474810094,0.5887627695800227,0.5039327297878162,0.4997800776007327,0.15076189221987593,0.49163399360864357,0.1156619199574001
0.657,0.64275,0.6827500000000001,0.6182500000000001,0.7125,0.57725,0.90125,0.823,0.823,0.7475,0.7795000000000001,0.7215,0.49227276696062167,0.5005762682266655,0.5886841875491138,0.5038939199422373,0.499301423007202,0.17822612241311211,0.47810520941251755,0.1303860362280166
0.65675,0.64225,0.6822499999999999,0.618,0.7125,0.5765,0.9,0.8220000000000001,0.8220000000000001,0.74625,0.778,0.7197499999999999,0.49219418492971273,0.5005849995634332,0.5885794115079018,0.5037645538071684,0.49886157824660454,0.17822612241311211,0.47810520941251755,0.1303860362280166
0.6565000000000001,0.6417499999999999,0.68175,0.61775,0.7125,0.57575,0.89875,0.821,0.821,0.745,0.7765000000000001,0.718,0.4919933641840566,0.5005849995634332,0.5886579935388108,0.5034282019470386,0.49847347990462654,0.18409190946858028,0.47665791880680436,0.13553751992020782
0.65625,0.64125,0.68125,0.6175,0.7125,0.575,0.8975,0.82,0.82,0.74375,0.775,0.71625,0.49187112546930933,0.5005588055531301,0.5889548589889112,0.5032988358119698,0.4982535575053592,0.20025171452412854,0.4752198231019904,0.15393703879479884
0.65625,0.64125,0.68125,0.6175,0.7125,0.575,0.8975,0.82,0.82,0.74375,0.775,0.71625,0.49174888675456213,0.5005849995634332,0.5890683663668907,0.5033117724103017,0.49816300124116075,0.20025171452412854,0.4752198231019904,0.15393703879479884
0.65625,0.64125,0.68125,0.6175,0.7125,0.575,0.8975,0.82,0.82,0.74375,0.775,0.71625,0.49167903606042085,0.5005762682266655,0.5890509036933554,0.5033764554525447,0.4980336351060919,0.2046612036147469,0.4699057825753447,0.16011957928422818
0.65625,0.64125,0.68125,0.6175,0.7125,0.575,0.8975,0.82,0.82,0.74375,0.775,0.71625,0.49178381210163274,0.5006199249105038,0.5892255304287086,0.5036222510737675,0.497865459125444,0.2046612036147469,0.4699057825753447,0.16011957928422818
0.6555,0.6405,0.6807500000000001,0.617,0.7122499999999999,0.57375,0.8959999999999999,0.8184999999999999,0.8184999999999999,0.74175,0.7745000000000001,0.71325,0.4919235134899153,0.5006985069414127,0.5891818737448703,0.5041785253078731,0.4979172055693549,0.21881891194057249,0.45492511032305577,0.18278985999450775
0.6547499999999999,0.63975,0.68025,0.6164999999999999,0.7120000000000001,0.5725,0.8945000000000001,0.8170000000000001,0.8170000000000001,0.7397499999999999,0.774,0.71025,0.4919671701737536,0.5009429843709072,0.5891731424081027,0.5047347995419788,0.49794307881660194,0.21881891194057249,0.45492511032305577,0.18278985999450775
0.654,0.639,0.67975,0.616,0.71175,0.57125,0.893,0.8155,0.8155,0.73775,0.7735,0.7072499999999999,0.4920806775517332,0.5009866410547454,0.5891032917139614,0.5050064683092826,0.4977619662629136,0.22272319746238695,0.45202849446972027,0.19000142592911826
0.65325,0.63825,0.67925,0.6154999999999999,0.7115,0.57,0.8915000000000001,0.8140000000000001,0.8140000000000001,0.73575,0.773,0.7042499999999999,0.4920544835414302,0.5010302977385838,0.5891818737448703,0.5052005174865944,0.4975032340433587,0.23887363766806363,0.4544607318162807,0.21192626278014262
0.6525,0.6375,0.67875,0.615,0.71125,0.56875,0.89,0.8125,0.8125,0.73375,0.7725,0.70125,0.4919671701737536,0.5011088797694927,0.5890945603771938,0.5052910737760844,0.49729624826771485,0.328971873788563,0.4361583776065511,0.30935183921918635
0.6525,0.6375,0.67875,0.615,0.71125,0.56875,0.89,0.8125,0.8125,0.73375,0.7725,0.70125,0.4919671701737536,0.5011438051165633,0.5889461276521435,0.5050840880004406,0.49693402316033813,0.33876379970792114,0.4322987759408215,0.31803075319617996
0.6525,0.6375,0.67875,0.615,0.71125,0.56875,0.89,0.8125,0.8125,0.73375,0.7725,0.70125,0.4919671701737536,0.5010477604121191,0.5888151576006286,0.5050064684104486,0.4963906855245645,0.33876379970792114,0.4322987759408215,0.31803075319617996
0.6525,0.6375,0.67875,0.615,0.71125,0.56875,0.89,0.8125,0.8125,0.73375,0.7725,0.70125,0.4918187374487034,0.5010564917488868,0.588754038243255,0.5049935318121166,0.4957567915993009,0.3925944395884838,0.4400945634338177,0.3892230341536498
0.652,0.6367499999999999,0.67825,0.61425,0.71025,0.56725,0.88825,0.81125,0.81125,0.7304999999999999,0.77125,0.6975,0.49198463284728894,0.5010914170959574,0.5886317995285079,0.5054075033634042,0.4950323414351304,0.3925944395884838,0.4400945634338177,0.3892230341536498
0.6515000000000001,0.636,0.6777500000000001,0.6135,0.7092499999999999,0.56575,0.8865000000000001,0.81,0.81,0.72725,0.77,0.69375,0.4922203789400157,0.5012049244739369,0.5886056055182048,0.5059508409991779,0.49435963771487085,0.40434474947628857,0.4372030491899889,0.40158233001306815
0.6509999999999999,0.63525,0.6772499999999999,0.61275,0.70825,0.5642499999999999,0.8847499999999999,0.80875,0.80875,0.7240000000000001,0.76875,0.69,0.4924823190430455,0.5013795512092901,0.5887278442329521,0.5066752913150974,0.49389391971967217,0.4151096292108931,0.437698073365166,0.4146718238901924
0.6505,0.6345000000000001,0.67675,0.612,0.7072499999999999,0.56275,0.883,0.8075,0.8075,0.72075,0.7675,0.68625,0.4926918711254693,0.5015279839343404,0.5890509036933554,0.5071798191558751,0.4939974126074941,0.6081043082624168,0.398682032194337,0.598587050132684
