C0,C1,C2,C3,C4,C5,C6,C7,C8,C9,C10,C11,Ax,Ay,Az,Gr,Gp,Fx_norm,Fy_norm,Fz_norm
0.64,0.6225,0.6575,0.6025,0.6875,0.54875,0.81,0.78625,0.75,0.6975,0.72625,0.60625,0.4972238643344809,0.5014199441295453,0.5354290549547357,0.500139762407484,0.49966224084858035,0.535595705616963,0.6216775201823936,0.002675708123091617
0.64,0.6225,0.6575,0.6025,0.6875,0.54875,0.81,0.78625,0.75,0.6975,0.72625,0.60625,0.4972180686441562,0.5014170462843829,0.5353913829676252,0.5001310272570162,0.49966806428222554,0.5353369864472814,0.622300505350843,0.0018553196998236199
0.64,0.6225,0.6575,0.6025,0.6875,0.54875,0.81,0.78625,0.75,0.6975,0.72625,0.60625,0.4972145912299614,0.5014153075772856,0.535368779775359,0.5001257861667356,0.4996715583424126,0.5353369864472814,0.622300505350843,0.0018553196998236199
0.64,0.6225,0.6575,0.6025,0.6875,0.54875,0.81,0.78625,0.75,0.6975,0.72625,0.60625,0.49727370727127307,0.5013909656779219,0.5353583475327747,0.5000908455648646,0.49974143954615463,0.53637022210599,0.6216771916251247,0.0022624657229464652
0.64,0.6225,0.6575,0.6025,0.6875,0.54875,0.81,0.78625,0.75,0.6975,0.72625,0.60625,0.4973015265848315,0.5013666237785582,0.535368779775359,0.5000908455648646,0.49982529699064504,0.5366322425840444,0.6212103233420602,0.0035006615228259826
0.64,0.6225,0.6575,0.6025,0.6875,0.54875,0.81,0.78625,0.75,0.6975,0.72625,0.60625,0.49724241054351986,0.5013457592933894,0.535351392704385,0.5001327742871098,0.49983927323139343,0.5361114997249189,0.6224561274676346,0.002262904750417124
0.64,0.6225,0.6572499999999999,0.6022500000000001,0.6875,0.54875,0.8105,0.78675,0.7497499999999999,0.6975,0.72625,0.6065,0.4972145912299614,0.5013075077372466,0.5353826894321383,0.500139762407484,0.4998532494721418,0.5361114997249189,0.6224561274676346,0.002262904750417124
0.64,0.6225,0.657,0.602,0.6875,0.54875,0.8109999999999999,0.7872499999999999,0.7495,0.6975,0.72625,0.60675,0.4972145912299614,0.5013109851514413,0.5353931216747226,0.5001467505278582,0.4998672257128902,0.5371513380003728,0.6218336370677785,0.0020578217701141604
0.64,0.6225,0.65675,0.60175,0.6875,0.54875,0.8115000000000001,0.7877500000000001,0.74925,0.6975,0.72625,0.607,0.49717286225962376,0.5012831658378829,0.5353861668463331,0.5001467505278582,0.4997833682683998,0.5379324506833664,0.6215217337869675,0.0030847908028971633
0.64,0.6225,0.6565000000000001,0.6015,0.6875,0.54875,0.812,0.78825,0.7490000000000001,0.6975,0.72625,0.6072500000000001,0.4971415655318705,0.501317939979831,0.535368779775359,0.5001607267686066,0.49972047518503204,0.5371463892492032,0.6221455403485895,0.002880552106191618
0.64,0.6225,0.65625,0.60125,0.6875,0.54875,0.8125,0.78875,0.74875,0.6975,0.72625,0.6075,0.49712417846089646,0.5013214173940258,0.5353444378759954,0.5001257861667356,0.4996785464627868,0.5371463892492032,0.6221455403485895,0.002880552106191618
0.64,0.6225,0.65625,0.60125,0.6875,0.54875,0.8125,0.78875,0.74875,0.6975,0.72625,0.6075,0.49711374621831206,0.5013457592933894,0.535316618562437,0.5001118099259871,0.4996645702220384,0.5345575212070849,0.6213662740161207,0.0023668756776439336
0.64,0.6225,0.65625,0.60125,0.6875,0.54875,0.8125,0.78875,0.74875,0.6975,0.72625,0.6075,0.49710331397572766,0.5013283722224154,0.5353305282192162,0.5000768693241162,0.49960866525904485,0.5361148010332917,0.6207431265017266,0.0023667613746338224
0.64,0.6225,0.65625,0.60125,0.6875,0.54875,0.8125,0.78875,0.74875,0.6975,0.72625,0.6075,0.4970581075911952,0.5013527141217791,0.5353548701185799,0.5000768693241162,0.49964360586091583,0.5350733153150407,0.6208990771757871,0.002158294765451958
0.63975,0.62225,0.65625,0.60125,0.6875,0.5485,0.8122499999999999,0.789,0.7495,0.6975,0.72625,0.60775,0.4970754946621692,0.5013144625656362,0.5353479152901902,0.5000489168426194,0.49962264149979324,0.5368909649651155,0.6216778487396626,0.0031880012254373743
0.6395000000000001,0.622,0.65625,0.60125,0.6875,0.54825,0.812,0.78925,0.7502500000000001,0.6975,0.72625,0.608,0.4970859269047536,0.5013144625656362,0.5353618249469694,0.5000419287222452,0.49961565337941904,0.5355924075199798,0.6215214052296986,0.003087874386374517
0.63925,0.62175,0.65625,0.60125,0.6875,0.5479999999999999,0.81175,0.7895,0.7509999999999999,0.6975,0.72625,0.6082500000000001,0.4971276558750913,0.501317939979831,0.5353270508050214,0.5000489168426194,0.4995877008979222,0.5361114997249189,0.621833472789144,0.0031907704756369156
0.639,0.6214999999999999,0.65625,0.60125,0.6875,0.54775,0.8115000000000001,0.78975,0.7517499999999999,0.6975,0.72625,0.6085,0.4971415655318705,0.5013214173940258,0.5352714121779045,0.5000768693241162,0.49960167713867065,0.5361114997249189,0.62074361933763,0.0026720919914989664
0.63875,0.62125,0.65625,0.60125,0.6875,0.5475,0.81125,0.79,0.7525,0.6975,0.72625,0.60875,0.4971207010467017,0.501335327050805,0.5352575025211253,0.5000978336852387,0.4995387840621338,0.5366355438924171,0.621054865503903,0.002161164680234274
0.63875,0.62125,0.65625,0.60125,0.6875,0.5475,0.81125,0.79,0.7525,0.6975,0.72625,0.60875,0.4970754946621692,0.5013805334353375,0.5352609799353201,0.5001327742871098,0.49951083158746806,0.5366355438924171,0.621054865503903,0.002161164680234274
0.63875,0.62125,0.65625,0.60125,0.6875,0.5475,0.81125,0.79,0.7525,0.6975,0.72625,0.60875,0.4971067913899225,0.5014222624056751,0.5352540251069304,0.500174703009355,0.49943396227018283,0.5361148010332917,0.6216773559037592,0.002262367656159382
0.63875,0.62125,0.65625,0.60125,0.6875,0.5475,0.81125,0.79,0.7525,0.6975,0.72625,0.60875,0.497096359147338,0.501408352748896,0.5353409604618006,0.5002236198519744,0.49936408105960983,0.5353336851389087,0.6218331422991852,0.002679661318674312
0.639,0.6214999999999999,0.6565000000000001,0.60125,0.6875,0.54725,0.8109999999999999,0.79025,0.7525,0.6975,0.72625,0.60875,0.4970685398337796,0.5014187849914803,0.535351392704385,0.5002725366945938,0.49929419984903683,0.5353336851389087,0.6218331422991852,0.002679661318674312
0.63925,0.62175,0.65675,0.60125,0.6875,0.547,0.8107500000000001,0.7905,0.7525,0.6975,0.72625,0.60875,0.49710331397572766,0.5014257398198699,0.535351392704385,0.5003074772964647,0.49920335427734125,0.536628944487061,0.6212103233420602,0.0018513665042409202
0.6395000000000001,0.622,0.657,0.60125,0.6875,0.54675,0.8105,0.7907500000000001,0.7525,0.6975,0.72625,0.60875,0.49718329450220816,0.5013770560211427,0.5353200959766318,0.5003354297779615,0.4991055205784405,0.5371562867515425,0.621521898065602,0.003498322207812205
0.63975,0.62225,0.6572499999999999,0.60125,0.6875,0.5465,0.81025,0.7909999999999999,0.7525,0.6975,0.72625,0.60875,0.49718329450220816,0.5013144625656362,0.5353027089056578,0.5004472397107798,0.49903563936103645,0.5363718727601764,0.6223006696294775,0.0021582876215138253
0.64,0.6225,0.6575,0.60125,0.6875,0.54625,0.81,0.79125,0.7525,0.6975,0.72625,0.60875,0.49714852036026014,0.5013040303230518,0.5352505476927357,0.5005380852824753,0.49896575817095645,0.53637022210599,0.6223006696294775,0.0030914970124563766
0.64,0.6225,0.6575,0.60125,0.6875,0.54625,0.81,0.79125,0.7525,0.6975,0.72625,0.60875,0.49717981708801334,0.5012727335952986,0.5353027089056578,0.5007197764122046,0.4988749126129229,0.535594058174166,0.621054865503903,0.0021606275859765273
0.64,0.6225,0.6575,0.60125,0.6875,0.54625,0.81,0.79125,0.7525,0.6975,0.72625,0.60875,0.49719024933059774,0.5012657787669089,0.5353305282192162,0.5008735150536059,0.4988120195227241,0.535594058174166,0.621054865503903,0.0021606275859765273
0.64,0.6225,0.6575,0.60125,0.6875,0.54625,0.81,0.79125,0.7525,0.6975,0.72625,0.60875,0.4971346107034809,0.5012970754946622,0.5353792120179435,0.5010621942968784,0.49872816207823367,0.5368926156193018,0.6215214052296986,0.0027790185607656738
0.64,0.6225,0.6575,0.60125,0.6872499999999999,0.54625,0.81025,0.7909999999999999,0.7517499999999999,0.6975,0.726,0.6082500000000001,0.4971276558750913,0.5013422818791946,0.5353861668463331,0.5011740042228655,0.4986652690016969,0.5368909649651155,0.6216775201823936,0.0023688032420417396
0.64,0.6225,0.6575,0.60125,0.687,0.54625,0.8105,0.7907500000000001,0.7509999999999999,0.6975,0.72575,0.60775,0.4971519977744549,0.5013770560211427,0.5354522377160343,0.5013277428574359,0.4985604471892529,0.5358593767492038,0.620432044614088,0.002881842561197831
0.64,0.6225,0.6575,0.60125,0.68675,0.54625,0.8107500000000001,0.7905,0.7502500000000001,0.6975,0.7254999999999999,0.6072500000000001,0.49717286225962376,0.5014396494766492,0.5354696247870083,0.5013766597068863,0.49846960163121934,0.5358593767492038,0.620432044614088,0.002881842561197831
0.64,0.6225,0.6575,0.60125,0.6865000000000001,0.54625,0.8109999999999999,0.79025,0.7495,0.6975,0.7252500000000001,0.60675,0.4971972041589874,0.5014326946482596,0.5354626699586188,0.5014535290378335,0.4984276729226361,0.5358544279980342,0.62074361933763,0.003088395244409231
0.64,0.6225,0.6575,0.60125,0.68625,0.54625,0.81125,0.79,0.74875,0.6975,0.725,0.60625,0.49727022985707825,0.5015057203463504,0.5354661473728136,0.5014954577737407,0.4984835778856297,0.5371480366920002,0.6224561274676346,0.003189605364272476
0.64,0.6225,0.6575,0.60125,0.68625,0.54625,0.81125,0.79,0.74875,0.6975,0.725,0.60625,0.4973119588274159,0.5015300622457141,0.5355009215147616,0.5014884696601974,0.4985185184806697,0.5371480366920002,0.6224561274676346,0.003189605364272476
0.64,0.6225,0.6575,0.60125,0.68625,0.54625,0.81125,0.79,0.74875,0.6975,0.725,0.60625,0.4973675974545328,0.5015648363876621,0.5354661473728136,0.5014395528380711,0.4986093640387033,0.5374100571700545,0.6207434550589955,0.002367198453757718
0.6402500000000001,0.6225,0.6577500000000001,0.60125,0.68625,0.5465,0.812,0.79025,0.7490000000000001,0.6975,0.7247499999999999,0.6054999999999999,0.497346732969364,0.5015857008728309,0.5354557151302292,0.5013487072663755,0.4987491264461873,0.5361114997249189,0.6213662740161207,0.003497998782249501
0.6405,0.6225,0.6579999999999999,0.60125,0.68625,0.54675,0.8127500000000001,0.7905,0.74925,0.6975,0.7245,0.60475,0.49733282331258477,0.5015717912160518,0.5354487603018395,0.5012089448588916,0.4989098532079629,0.5361148010332917,0.6216775201823936,0.001850415711020439
0.64075,0.6225,0.65825,0.60125,0.68625,0.547,0.8134999999999999,0.7907500000000001,0.7495,0.6975,0.72425,0.604,0.4972980491706367,0.5015370170741037,0.5354105087456967,0.5010691824514075,0.4989517819438701,0.53637022210599,0.621521898065602,0.002160736693395269
0.6409999999999999,0.6225,0.6585,0.60125,0.68625,0.54725,0.8142499999999999,0.7909999999999999,0.7497499999999999,0.6975,0.7240000000000001,0.6032500000000001,0.4972563202002991,0.5015091977605453,0.5353826894321383,0.5009643606389635,0.4990146750340689,0.5376654814541424,0.6221442241868238,0.003087107387198705
0.64125,0.6225,0.65875,0.60125,0.68625,0.5475,0.815,0.79125,0.75,0.6975,0.72375,0.6025,0.49724936537190945,0.5014535591334284,0.5353618249469694,0.5008455625721091,0.49910552060576446,0.5350716646608542,0.622300505350843,0.0023665613443661256
0.64125,0.6225,0.65875,0.60125,0.68625,0.5475,0.815,0.79125,0.75,0.6975,0.72375,0.6025,0.49727370727127307,0.5014222624056751,0.535368779775359,0.5008106219634071,0.49909154435135406,0.535594058174166,0.6221448813013617,0.003290676502066601
0.64125,0.6225,0.65875,0.60125,0.68625,0.5475,0.815,0.79125,0.75,0.6975,0.72375,0.6025,0.4972945717564419,0.5014987655179608,0.5353618249469694,0.5007826694819103,0.4990566037426521,0.535328736387739,0.6208992414544215,0.003810675315861137
0.6415000000000001,0.6225,0.6585,0.601,0.6857500000000001,0.54775,0.81675,0.79125,0.7495,0.6977500000000001,0.7232500000000001,0.6025,0.4972910943422471,0.5014848558611816,0.5354070313315019,0.5007547170004135,0.4990845562241489,0.5368926156193018,0.6213666045060794,0.001956752580666794
0.6417499999999999,0.6225,0.65825,0.60075,0.68525,0.5479999999999999,0.8184999999999999,0.79125,0.7490000000000001,0.698,0.72275,0.6025,0.4973502103835588,0.5015126751747401,0.5354139861598916,0.5007127882645064,0.49904961561544686,0.5361148010332917,0.6219894234632045,0.002469774364702014
0.642,0.6225,0.6579999999999999,0.6004999999999999,0.68475,0.54825,0.82025,0.79125,0.7484999999999999,0.69825,0.72225,0.6025,0.4973432555551692,0.5015717912160518,0.5354209409882811,0.5007686932275,0.49903563937469847,0.5345542198987121,0.6204322088927224,0.002572265197837653
0.64225,0.6225,0.6577500000000001,0.60025,0.68425,0.5485,0.8220000000000001,0.79125,0.748,0.6984999999999999,0.72175,0.6025,0.4973675974545328,0.5015926557012206,0.5353861668463331,0.5007477288732083,0.49914744930751664,0.537670430205312,0.6215222266228709,0.001954065161031308
0.6425,0.6225,0.6575,0.6,0.68375,0.54875,0.82375,0.79125,0.7475,0.69875,0.72125,0.6025,0.4973675974545328,0.5015822234586361,0.5353861668463331,0.5007686932411619,0.49929419984220585,0.5361148010332917,0.6207427979444576,0.0025673456222603678
0.6425,0.6225,0.6575,0.6,0.68375,0.54875,0.82375,0.79125,0.7475,0.69875,0.72125,0.6025,0.4973710748687276,0.501620475014779,0.535316618562437,0.5007197763917115,0.49941998600211046,0.5361148010332917,0.6207427979444576,0.0025673456222603678
0.6425,0.6225,0.6575,0.6,0.68375,0.54875,0.82375,0.79125,0.7475,0.69875,0.72125,0.6025,0.49733977814097435,0.5016239524289738,0.535299231491463,0.5006498951948005,0.49959468901829646,0.5366305951412474,0.6221448813013617,0.003291550660314393
0.6425,0.6225,0.6575,0.6,0.68375,0.54875,0.8255,0.79125,0.7475,0.69875,0.72125,0.6025,0.49732934589838995,0.5016239524289738,0.5352575025211253,0.5004961565533992,0.49974143954615463,0.5371513380003728,0.6221443884654583,0.002364535713181236
0.6425,0.6225,0.6575,0.6,0.68375,0.54875,0.8272499999999999,0.79125,0.7475,0.69875,0.72125,0.6025,0.4973119588274159,0.5015961331154154,0.5352331606217616,0.500349406025541,0.49982529699064504,0.5355924075199798,0.6212103233420602,0.0027801089855041903
0.6425,0.6225,0.6575,0.6,0.68375,0.54875,0.8290000000000001,0.79125,0.7475,0.69875,0.72125,0.6025,0.49725979761449385,0.5015648363876621,0.5351983864798137,0.5001677148889808,0.49983927323139343,0.5348145929339696,0.6213662740161207,0.0021593709023142093
0.6425,0.6225,0.6575,0.6,0.68375,0.54875,0.83075,0.79125,0.7475,0.69875,0.72125,0.6025,0.4972806620996627,0.5015544041450777,0.5352470702785409,0.5000908455648646,0.4998532494721418,0.5371496873461866,0.6221450455799962,0.0027832945324621533
0.6425,0.6225,0.6575,0.6,0.68375,0.54875,0.8325,0.79125,0.7475,0.69875,0.72125,0.6025,0.4972910943422471,0.5015370170741037,0.5352331606217616,0.500034940601871,0.4998532494721418,0.5368909649651155,0.622300505350843,0.0032929248942314285
0.6425,0.6225,0.6575,0.6,0.68375,0.54875,0.8325,0.79125,0.7475,0.69875,0.72125,0.6025,0.4972806620996627,0.5015300622457141,0.535281844420489,0.5,0.49983927323139343,0.5368909649651155,0.622300505350843,0.0032929248942314285
0.6425,0.6225,0.6579999999999999,0.59975,0.6835,0.54875,0.8322499999999999,0.7905,0.7465,0.6984999999999999,0.7204999999999999,0.6025,0.49727370727127307,0.5015509267308829,0.5353305282192162,0.5000908455648646,0.4998532494721418,0.5368959137162851,0.6208990771757871,0.002779357573102486
0.6425,0.6225,0.6585,0.5995,0.68325,0.54875,0.8320000000000001,0.78975,0.7454999999999999,0.69825,0.7197499999999999,0.6025,0.49730848141322115,0.5016135201863894,0.5353409604618006,0.5001537386482324,0.4998812019536386,0.5374084097272577,0.6205876686635694,0.002264177020853546
0.6425,0.6225,0.659,0.59925,0.6829999999999999,0.54875,0.83175,0.789,0.7445,0.698,0.7190000000000001,0.6025,0.4972806620996627,0.501603087943805,0.5353444378759954,0.5001327742871098,0.4999231306758838,0.5361114997249189,0.6212104876206946,0.0033959443787888377
0.6425,0.6225,0.6595,0.599,0.6827500000000001,0.54875,0.8315,0.78825,0.7434999999999999,0.6977500000000001,0.71825,0.6025,0.49724936537190945,0.5016100427721946,0.5353861668463331,0.5001257861667356,0.4999720475185032,0.537670430205312,0.6202764224972964,0.0026717640197938125
0.6425,0.6225,0.66,0.59875,0.6825,0.54875,0.83125,0.7875,0.7425,0.6975,0.7175,0.6025,0.49723893312932504,0.5016343846715582,0.5353826894321383,0.5,0.5000139762407484,0.5355924075199798,0.6210547012252685,0.0020558032828673994
0.6425,0.6225,0.66,0.59875,0.6825,0.54875,0.83125,0.7875,0.7425,0.6975,0.7175,0.6025,0.49720415898737697,0.5016761136418959,0.535351392704385,0.49984626135176763,0.5000069881203743,0.5361180991302749,0.6213662740161207,0.0029845314762544043
0.6425,0.62225,0.65925,0.59875,0.6825,0.54875,0.83175,0.7877500000000001,0.74275,0.6975,0.71825,0.60275,0.497221546058351,0.5016065653579997,0.5353931216747226,0.49972746330540624,0.4999580712777548,0.537144738595017,0.621521569508333,0.0036016488817092896
0.6425,0.622,0.6585,0.59875,0.6825,0.54875,0.8322499999999999,0.7879999999999999,0.743,0.6975,0.7190000000000001,0.603,0.4972354557151302,0.5015996105296102,0.5353931216747226,0.4996575821016642,0.4998532494721418,0.536109852282122,0.6208987486185181,0.002262782004571041
0.6425,0.62175,0.6577500000000001,0.59875,0.6825,0.54875,0.8327500000000001,0.78825,0.7432500000000001,0.6975,0.7197499999999999,0.6032500000000001,0.49724241054351986,0.5015926557012206,0.5353931216747226,0.499580712777548,0.49972047518503204,0.5374100571700545,0.6215217337869675,0.0015428665766408368
0.6425,0.6214999999999999,0.657,0.59875,0.6825,0.54875,0.83325,0.7885,0.7434999999999999,0.6975,0.7204999999999999,0.6035,0.49725284278610427,0.5015161525889349,0.5354209409882811,0.499685534583161,0.49956673654363065,0.5342987988260137,0.6226119138630607,0.0034981994619661173
0.6425,0.62125,0.65625,0.59875,0.6825,0.54875,0.83375,0.78875,0.74375,0.6975,0.72125,0.60375,0.4972876169280523,0.501460513961818,0.5354278958166707,0.499755415786903,0.4994479384904382,0.53637022210599,0.621521569508333,0.002676022456369425
0.6425,0.62125,0.65625,0.59875,0.6825,0.54875,0.83375,0.78875,0.74375,0.6975,0.72125,0.60375,0.4972667524428835,0.501460513961818,0.5354139861598916,0.49984626135176763,0.49939203352744466,0.5374166565754106,0.6218336370677785,0.003398393450670282
0.6425,0.62125,0.65625,0.59875,0.6825,0.54875,0.83375,0.78875,0.74375,0.6975,0.72125,0.60375,0.49727022985707825,0.5014848558611816,0.5354105087456967,0.4999371069166322,0.49944095037006403,0.5374166565754106,0.6218336370677785,0.003398393450670282
0.6425,0.62125,0.65625,0.59875,0.6825,0.54875,0.83375,0.78875,0.74375,0.6975,0.72125,0.60375,0.4972945717564419,0.5015231074173245,0.5353618249469694,0.4999930118796258,0.499545772175677,0.5353320344847223,0.6213661097374862,0.0025698031369777875
0.6425,0.62125,0.65625,0.59875,0.6825,0.54875,0.83375,0.78875,0.74375,0.6975,0.72125,0.60375,0.4972876169280523,0.5015961331154154,0.5352922766630733,0.499965059398129,0.4996016771318396,0.5355924075199798,0.6218336370677785,0.003395837869165779
0.64225,0.62125,0.6565000000000001,0.59875,0.68325,0.5489999999999999,0.836,0.78925,0.7445,0.698,0.7215,0.60425,0.4972563202002991,0.5016135201863894,0.5353096637340473,0.49982529699064504,0.49960866525904485,0.5379308032405694,0.621521898065602,0.002366554200427993
0.642,0.62125,0.65675,0.59875,0.684,0.54925,0.83825,0.78975,0.7452500000000001,0.6984999999999999,0.72175,0.60475,0.4972250234725458,0.5016309072573635,0.5353096637340473,0.49962962962016744,0.49958071277071703,0.535328736387739,0.6216773559037592,0.0025709753922803637
0.6417499999999999,0.62125,0.657,0.59875,0.68475,0.5495,0.8405,0.79025,0.746,0.6990000000000001,0.722,0.60525,0.4972180686441562,0.5015891782870258,0.5353061863198526,0.49937805727986523,0.49944095035640207,0.5381878749674542,0.6208985843398837,0.003397012072815113
0.6415000000000001,0.62125,0.6572499999999999,0.59875,0.6855,0.54975,0.8427500000000001,0.7907500000000001,0.74675,0.6995,0.72225,0.60575,0.4971519977744549,0.5015300622457141,0.5353757346037487,0.49917540180267544,0.4991754017890135,0.5374084097272577,0.6213666045060794,0.002775397883030578
0.64125,0.62125,0.6575,0.59875,0.68625,0.55,0.845,0.79125,0.7475,0.7,0.7225,0.60625,0.49716938484542894,0.5014952881037661,0.5354000765031123,0.4990006987933205,0.4989308175759165,0.537670430205312,0.6219886020700321,0.003092034106714123
0.64125,0.62125,0.6575,0.59875,0.68625,0.55,0.845,0.79125,0.7475,0.7,0.7225,0.60625,0.4972076364015718,0.5014987655179608,0.5353861668463331,0.4989238294760353,0.4987491264461873,0.5368926156193018,0.6208989128971526,0.002576409331403154
0.64125,0.62125,0.6575,0.59875,0.68625,0.55,0.845,0.79125,0.7475,0.7,0.7225,0.60625,0.49728413951385747,0.5014883332753765,0.5353722571895538,0.4989378057167837,0.4986303284066569,0.5368926156193018,0.6208989128971526,0.002576409331403154
0.64125,0.62125,0.6575,0.59875,0.68625,0.55,0.845,0.79125,0.7475,0.7,0.7225,0.60625,0.4973119588274159,0.5015091977605453,0.5353583475327747,0.4991334730940923,0.49856044721657694,0.5363751708571596,0.6218331422991852,0.0029820668175988517
0.6415000000000001,0.6214999999999999,0.6577500000000001,0.59875,0.6872499999999999,0.55025,0.84725,0.7922499999999999,0.7497499999999999,0.69975,0.72275,0.60575,0.49738498452550683,0.5015335396599089,0.535316618562437,0.4993221523305337,0.4985883996980737,0.5381928237186239,0.6208992414544215,0.0031891754290867083
0.6417499999999999,0.62175,0.6579999999999999,0.59875,0.68825,0.5505,0.8495,0.79325,0.752,0.6995,0.723,0.60525,0.497381507111312,0.5015300622457141,0.5353270508050214,0.4994269741361467,0.49890286511491266,0.5368926156193018,0.6218336370677785,0.0031892916804435872
0.642,0.622,0.65825,0.59875,0.6892499999999999,0.5507500000000001,0.85175,0.79425,0.75425,0.6992499999999999,0.7232500000000001,0.60475,0.49731891365580555,0.5015231074173245,0.5353409604618006,0.49952480781455444,0.49921034241137746,0.5363751708571596,0.6216773559037592,0.0023675127870355266
0.64225,0.62225,0.6585,0.59875,0.69025,0.551,0.8540000000000001,0.79525,0.7565000000000001,0.6990000000000001,0.7234999999999999,0.60425,0.49731891365580555,0.5014987655179608,0.5353444378759954,0.49948986721951444,0.49946191474484863,0.5371513380003728,0.621833472789144,0.0028807657748866605
0.6425,0.6225,0.65875,0.59875,0.69125,0.55125,0.85625,0.79625,0.75875,0.69875,0.72375,0.60375,0.49732586848419513,0.5014674687902076,0.5353548701185799,0.49933612857811305,0.499720475191863,0.5371480366920002,0.6216780130182971,0.003084128364997647
0.6425,0.6225,0.65875,0.59875,0.69125,0.55125,0.85625,0.79625,0.75875,0.69875,0.72375,0.60375,0.4972910943422471,0.5014500817192336,0.5353583475327747,0.49921034241820844,0.499965059398129,0.5366272938328748,0.6216778487396626,0.002159446238389056
0.64225,0.6225,0.659,0.59875,0.69125,0.551,0.8554999999999999,0.7959999999999999,0.7605,0.6990000000000001,0.726,0.60475,0.4972980491706367,0.5014222624056751,0.5353027089056578,0.4987910552162495,0.4998183088702708,0.5368909649651155,0.6226119138630607,0.00370498464789127
0.642,0.6225,0.65925,0.59875,0.69125,0.5507500000000001,0.8547499999999999,0.7957500000000001,0.76225,0.6992499999999999,0.7282500000000001,0.60575,0.4973363007267796,0.501408352748896,0.5352609799353201,0.49828092242893296,0.49953878405530283,0.5368909649651155,0.6226119138630607,0.00370498464789127
0.6417499999999999,0.6225,0.6595,0.59875,0.69125,0.5505,0.8540000000000001,0.7955,0.764,0.6995,0.7304999999999999,0.60675,0.4972667524428835,0.5014431268908439,0.5352331606217616,0.4976729559768706,0.49920335427734125,0.5368942662734882,0.6210550297825376,0.0020576171937040136
0.6415000000000001,0.6225,0.65975,0.59875,0.69125,0.55025,0.8532500000000001,0.79525,0.76575,0.69975,0.73275,0.60775,0.49719024933059774,0.5014187849914803,0.5352122961365928,0.49701607267535786,0.4987561145733925,0.5374133584784273,0.622456291746269,0.0028803286957627605
0.6415000000000001,0.6225,0.6609999999999999,0.5995,0.6922499999999999,0.5505,0.8540000000000001,0.7965000000000001,0.769,0.69975,0.7345,0.6082500000000001,0.49718329450220816,0.5014431268908439,0.5351740445804499,0.4962054507392747,0.4982669461471985,0.5374117078242409,0.6213666045060794,0.0027756349318867764
0.6417499999999999,0.6225,0.662,0.60025,0.69325,0.551,0.8554999999999999,0.7979999999999999,0.7705,0.6995,0.7340000000000001,0.60775,0.4972111138157666,0.5013631463643634,0.5352296832075668,0.49566037733642515,0.4978336826703362,0.5374117078242409,0.6213666045060794,0.0027756349318867764
0.642,0.6225,0.6629999999999999,0.601,0.6942499999999999,0.5515,0.857,0.7995,0.772,0.6992499999999999,0.7334999999999999,0.6072500000000001,0.4972145912299614,0.5012692561811037,0.5353270508050214,0.4953249476131116,0.4974563241564674,0.5368876668681322,0.621833472789144,0.003087767227302534
0.64225,0.6225,0.664,0.60175,0.69525,0.552,0.8584999999999999,0.8009999999999999,0.7735,0.6990000000000001,0.733,0.60675,0.49728413951385747,0.50115797892687,0.5354139861598916,0.4952131376871244,0.4971837874550426,0.5361148010332917,0.6221448813013617,0.0017498582873228996
0.6425,0.6225,0.665,0.6025,0.69625,0.5525,0.86,0.8025,0.775,0.69875,0.7325,0.60625,0.4974267134958445,0.5011092951281427,0.53544180547345,0.4951781970647604,0.49702306067960506,0.5363751708571596,0.6208990771757871,0.002572909451167378
0.6425,0.6225,0.665,0.6025,0.69625,0.5525,0.86,0.8025,0.775,0.69875,0.7325,0.60625,0.49748930695135096,0.5009145599332336,0.5355148311715409,0.4953529000672844,0.49696715571661143,0.5361148010332917,0.6213661097374862,0.002779134812122548
0.6425,0.6225,0.665,0.6025,0.69625,0.5525,0.86,0.8025,0.775,0.69875,0.7325,0.60625,0.4975101714365198,0.5008415342351428,0.5355322182425148,0.49561146054162275,0.49705800130196903,0.5361164484760885,0.6221448813013617,0.003400327509557296
0.643,0.623,0.66475,0.60425,0.69825,0.5535,0.86075,0.8035,0.7765000000000001,0.6992499999999999,0.73375,0.60525,0.49753799075007826,0.500838056820948,0.5355043989289564,0.49574423475359153,0.4972886092948106,0.5361164484760885,0.6221448813013617,0.003400327509557296
0.6435,0.6235,0.6645,0.606,0.70025,0.5545,0.8615,0.8045,0.778,0.69975,0.735,0.60425,0.4975901519630003,0.5008032826789999,0.5354661473728136,0.4958560446795787,0.4975541578826922,0.535595705616963,0.62198925918457,0.0027759330289415566
0.644,0.624,0.66425,0.60775,0.7022499999999999,0.5555,0.86225,0.8055,0.7795000000000001,0.70025,0.73625,0.6032500000000001,0.4975797197204159,0.5007337343951038,0.5354661473728136,0.4959259258696587,0.4979035639150642,0.5366305951412474,0.6215223909015054,0.0028816262947071064
0.6445000000000001,0.6245,0.664,0.6095,0.7042499999999999,0.5565,0.863,0.8065000000000001,0.7809999999999999,0.70075,0.7375,0.6022500000000001,0.497631880933338,0.5007580762944674,0.5354522377160343,0.49589098524729475,0.49826694617452255,0.5366305951412474,0.6215223909015054,0.0028816262947071064
0.645,0.625,0.66375,0.61125,0.70625,0.5575,0.86375,0.8075,0.7825,0.70125,0.73875,0.60125,0.4976527454185068,0.5007824181938311,0.5354800570295928,0.4959399020420971,0.4985953878252789,0.5366338932382306,0.6218329780205507,0.0024686066555418885
0.645,0.625,0.66375,0.61125,0.70625,0.5575,0.86375,0.8075,0.7825,0.70125,0.73875,0.60125,0.4977222937024029,0.5006780957679869,0.5354313732308655,0.4959678545509179,0.4988679245130417,0.5353336851389087,0.6218331422991852,0.002677733754276506
0.645,0.625,0.66375,0.61125,0.70625,0.5575,0.86375,0.8075,0.7825,0.70125,0.73875,0.60125,0.4977257711165977,0.5006572312828181,0.5354557151302292,0.4960587000816275,0.4992103424045465,0.5355990069253358,0.6216778487396626,0.001546919137908463
0.645,0.625,0.66375,0.61125,0.70625,0.5575,0.86375,0.8075,0.7825,0.70125,0.73875,0.60125,0.4977431581875717,0.5006572312828181,0.5354522377160343,0.4961146050446211,0.4995597484164254,0.5355990069253358,0.6216778487396626,0.001546919137908463
0.645,0.62525,0.66425,0.612,0.70675,0.55825,0.865,0.8095,0.7825,0.70125,0.7395,0.6015,0.49775011301596134,0.5006467990402337,0.53544180547345,0.4961914743482443,0.49984626135176763,0.5361131503791052,0.622300505350843,0.0026705807238595826
0.645,0.6255,0.66475,0.61275,0.7072499999999999,0.5589999999999999,0.86625,0.8115000000000001,0.7825,0.70125,0.7402500000000001,0.60175,0.497791841986299,0.5005668185137532,0.5354452828876447,0.4961285812717075,0.500209643611226,0.5358544279980342,0.6216778487396626,0.002367721909588119
0.645,0.62575,0.66525,0.6135,0.7077500000000001,0.55975,0.8675,0.8134999999999999,0.7825,0.70125,0.741,0.602,0.49770142921723404,0.5005842055847272,0.5356504503251382,0.49561844843657393,0.5006778476694663,0.5358544279980342,0.6216778487396626,0.002367721909588119
0.645,0.626,0.6657500000000001,0.61425,0.70825,0.5605,0.86875,0.8155,0.7825,0.70125,0.74175,0.6022500000000001,0.49762144869075353,0.5007233021525194,0.535939075703307,0.4945492660261524,0.5010482180424679,0.5366322425840444,0.6218331422991852,0.002370083955314138
0.645,0.62625,0.66625,0.615,0.70875,0.56125,0.87,0.8175,0.7825,0.70125,0.7425,0.6025,0.4975275585074938,0.5009632437319609,0.5362103140105018,0.4890496154760945,0.5048078267013222,0.5361164484760885,0.6213657811802171,0.002880122171005855
0.64575,0.62725,0.667,0.61575,0.71075,0.5625,0.8747499999999999,0.81825,0.785,0.7027500000000001,0.7447499999999999,0.606,0.4974336683242341,0.5012031853114024,0.5364815523176966,0.4835499649260365,0.5085674353601766,0.5361164484760885,0.6213657811802171,0.002880122171005855
0.6465000000000001,0.62825,0.6677500000000001,0.6164999999999999,0.7127500000000001,0.56375,0.8795000000000001,0.8190000000000001,0.7875,0.7042499999999999,0.747,0.6095,0.4975762423062211,0.5011023402997531,0.5367319261397225,0.47963661746183683,0.5082599580637117,0.5353336851389087,0.6213659454588517,0.0028816262947071064
0.64725,0.62925,0.6685,0.61725,0.71475,0.565,0.88425,0.81975,0.79,0.70575,0.74925,0.613,0.4967799144556108,0.5111103383524012,0.5439684250791111,0.4619706492651566,0.5053878405830847,0.5358527773438478,0.621833472789144,0.002475551862304067
0.648,0.63025,0.66925,0.618,0.71675,0.56625,0.889,0.8205,0.7925,0.7072499999999999,0.7515000000000001,0.6164999999999999,0.497506694022325,0.5155544736933616,0.5480961157283444,0.43817609855079437,0.5010342414465075,0.5368926156193018,0.6210543726679996,0.0022642016999125498
0.64875,0.63125,0.67,0.61875,0.71875,0.5675,0.89375,0.82125,0.795,0.70875,0.75375,0.62,0.49826129290259763,0.5217790451020621,0.5537921201794346,0.411537383274486,0.4929699504390473,0.5353320344847223,0.621054865503903,0.003188214894132412
0.64875,0.63125,0.67,0.61875,0.71875,0.5675,0.89375,0.82125,0.795,0.70875,0.75375,0.62,0.4995444587404806,0.5295371561706715,0.5603192266230831,0.3775751184471447,0.4832145345332849,0.5358527773438478,0.6212101590634257,0.002778611356292147
0.64875,0.63125,0.67,0.61875,0.71875,0.5675,0.89375,0.82125,0.795,0.70875,0.75375,0.62,0.49891156935702613,0.5396320895781896,0.5653301804777967,0.3362962898324494,0.4761076162425131,0.5361148010332917,0.6215217337869675,0.0020591122251203743
0.65,0.63275,0.672,0.62,0.7202500000000001,0.569,0.898,0.8242499999999999,0.80125,0.7170000000000001,0.758,0.635,0.4936363320235073,0.53749000243419,0.5593107765065897,0.3024667986705968,0.47352899988591246,0.5361148010332917,0.6215217337869675,0.0020591122251203743
0.65125,0.63425,0.674,0.62125,0.72175,0.5705,0.90225,0.8272499999999999,0.8075,0.7252500000000001,0.76225,0.65,0.48683798727266403,0.540748339534722,0.5562645616719407,0.2752550584116341,0.4723759602222686,0.536637191335214,0.6213659454588517,0.002164680147244154
0.6525,0.63575,0.6759999999999999,0.6225,0.7232500000000001,0.5720000000000001,0.9065000000000001,0.83025,0.81375,0.7334999999999999,0.7665000000000001,0.665,0.48544354418054736,0.5472163299370588,0.5598497757067844,0.24904261593018878,0.4784067082759777,0.5358544279980342,0.6208980915039802,0.0029822739918046815
0.65375,0.63725,0.6779999999999999,0.62375,0.7247499999999999,0.5735,0.9107500000000001,0.83325,0.82,0.74175,0.77075,0.68,0.48451855200472926,0.5605209166463817,0.5607434711548492,0.2551572222207844,0.48956673658871525,0.5358577293064068,0.6215212409510641,0.0025696031067100906
0.655,0.63875,0.68,0.625,0.72625,0.575,0.915,0.83625,0.82625,0.75,0.775,0.695,0.48553047953541745,0.5591855895955767,0.5583510101888236,0.3105241012912737,0.5052620552360693,0.5355973562711495,0.6221450455799962,0.002263969846647721
0.655,0.63875,0.68,0.625,0.72625,0.575,0.915,0.83625,0.82625,0.75,0.775,0.695,0.493872796188754,0.5531940049379281,0.5587474354070313,0.372613551383009,0.5229420000970199,0.5366322425840444,0.6212099947847912,0.002367198453757718
0.655,0.63875,0.68,0.625,0.72625,0.575,0.915,0.83625,0.82625,0.75,0.775,0.695,0.5039920714956359,0.5462565636192926,0.5592899120214209,0.42705100943957275,0.5431656206922071,0.5350799115090072,0.621521569508333,0.0017486840836735604
0.655,0.63875,0.68,0.625,0.72625,0.575,0.915,0.83625,0.82625,0.75,0.775,0.695,0.5099106304551935,0.5384602009945405,0.552592412282227,0.4880642916850954,0.5556883326213645,0.5366322425840444,0.6212099947847912,0.0025697031218439416
0.655,0.63975,0.68,0.625,0.72675,0.57525,0.91675,0.8372499999999999,0.828,0.75275,0.777,0.70075,0.5148311715408422,0.5222937024028932,0.5477553291372536,0.5240740747096101,0.5647728891897958,0.5361164484760885,0.6213656169015827,0.002469673700119248
0.655,0.64075,0.68,0.625,0.72725,0.5755,0.9185,0.83825,0.82975,0.7555,0.779,0.7065,0.5197969190110234,0.5182216503807768,0.5468477240324094,0.5221942708002895,0.5692872148012467,0.5368926156193018,0.6213656169015827,0.002574390844156393
0.655,0.6417499999999999,0.68,0.625,0.72775,0.57575,0.92025,0.8392499999999999,0.8315,0.75825,0.7809999999999999,0.7122499999999999,0.5245748861146852,0.5166150850227771,0.5456480161352019,0.5227253680853486,0.5696785495968498,0.535595705616963,0.6216775201823936,0.002264816078591906
0.655,0.64275,0.68,0.625,0.7282500000000001,0.5760000000000001,0.922,0.84025,0.83325,0.7609999999999999,0.7829999999999999,0.718,0.528904266787217,0.5144069270090761,0.5443370309837605,0.5284067098061218,0.5669531828011941,0.5353386338900783,0.6215217337869675,0.0031910029783506683
0.655,0.64375,0.68,0.625,0.72875,0.57625,0.92375,0.84125,0.835,0.76375,0.785,0.72375,0.5334144729978788,0.5084744583927392,0.5431686198143061,0.5308735163460312,0.5622921067506881,0.535595705616963,0.621054536946634,0.0021631831674810303
0.655,0.64375,0.68,0.625,0.72875,0.57625,0.92375,0.84125,0.835,0.76375,0.785,0.72375,0.5361824946969433,0.5045380255242202,0.5402406370622805,0.5325856057489071,0.5470230635213013,0.535595705616963,0.621054536946634,0.0021631831674810303
0.655,0.64375,0.68,0.625,0.72875,0.57625,0.92375,0.84125,0.835,0.76375,0.785,0.72375,0.5381055047466704,0.5019856035052335,0.5378064471259172,0.5306848366792368,0.531844865822624,0.536889314310929,0.621054536946634,0.002472775468166389
0.6552500000000001,0.64425,0.68025,0.62475,0.72875,0.57675,0.92325,0.8420000000000001,0.83525,0.7645000000000001,0.785,0.72425,0.5383002399415795,0.5039399102827138,0.536777132524255,0.5298322858433024,0.5158141172880124,0.5348178910309528,0.6213661097374862,0.0025723723569096362
0.6555,0.6447499999999999,0.6805,0.6245,0.72875,0.57725,0.9227500000000001,0.8427500000000001,0.8355,0.7652500000000001,0.785,0.7247499999999999,0.5370414160030601,0.5069200542476614,0.5363598428208783,0.5344164931366653,0.4992243192327609,0.5361148010332917,0.6216773559037592,0.002675921791786655
0.65575,0.6452500000000001,0.6807500000000001,0.62425,0.72875,0.57775,0.9222499999999999,0.8434999999999999,0.83575,0.7659999999999999,0.785,0.7252500000000001,0.5341308203220085,0.5083318844107522,0.5366206488854888,0.5466596798683188,0.4815793145569902,0.5361114997249189,0.6216775201823936,0.0022641861131384414
0.6559999999999999,0.64575,0.6809999999999999,0.624,0.72875,0.57825,0.92175,0.84425,0.836,0.7667499999999999,0.785,0.72575,0.5324860034078659,0.5068087769934276,0.5390165872657092,0.561767996978044,0.47259957985565093,0.5361180991302749,0.6210542064566753,0.002059542160306137
0.65625,0.64625,0.68125,0.62375,0.72875,0.57875,0.92125,0.845,0.83625,0.7675,0.785,0.72625,0.5313767082797232,0.504524115867441,0.541763744479605,0.5749126523787463,0.4648916830214299,0.5361148010332917,0.6218329780205507,0.002775827818216341
0.65625,0.64625,0.68125,0.62375,0.72875,0.57875,0.92125,0.845,0.83625,0.7675,0.785,0.72625,0.5297666655075286,0.5004033800465973,0.5449768751956046,0.5861984664073734,0.45643605721836655,0.5353320344847223,0.6213662740161207,0.0018494642683510377
0.65625,0.64625,0.68125,0.62375,0.72875,0.57875,0.92125,0.845,0.83625,0.7675,0.785,0.72625,0.527763674931321,0.4955141356887019,0.5478561741489029,0.5956044765266799,0.44774982339513764,0.5353320344847223,0.6213662740161207,0.0018494642683510377
0.6565000000000001,0.64625,0.68175,0.62375,0.72875,0.579,0.92125,0.84425,0.83625,0.7675,0.785,0.7275,0.523705532565984,0.48754737976840423,0.5504607573808116,0.5992592633525972,0.43943395964434623,0.5350733153150407,0.6224559631890001,0.00185030855194846
0.65675,0.64625,0.6822499999999999,0.62375,0.72875,0.5792499999999999,0.92125,0.8434999999999999,0.83625,0.7675,0.785,0.72875,0.5159091699412317,0.4824668776297945,0.5527384636784087,0.5970370394204996,0.43080363116664694,0.535594058174166,0.6223008339081121,0.0021596761433071267
0.657,0.64625,0.6827500000000001,0.62375,0.72875,0.5795,0.92125,0.8427500000000001,0.83625,0.7675,0.785,0.73,0.5063880098758563,0.47773063949647043,0.5544354418054734,0.5946610770997477,0.4233892356477203,0.535594058174166,0.6223008339081121,0.0021596761433071267
0.6572499999999999,0.64625,0.68325,0.62375,0.72875,0.57975,0.92125,0.8420000000000001,0.83625,0.7675,0.785,0.73125,0.4955315227596759,0.47472615363215914,0.5547831832249539,0.5907617067916504,0.42031446262842453,0.5363718727601764,0.6210547012252685,0.0023695312742822877
0.6575,0.64625,0.68375,0.62375,0.72875,0.58,0.92125,0.84125,0.83625,0.7675,0.785,0.7325,0.48454289390409294,0.47283791772438016,0.5543554612789929,0.5863242503745268,0.4221663147393484,0.5345558705528984,0.6204318803354535,0.0025718352626518896
0.6577500000000001,0.64625,0.68375,0.624,0.72875,0.57975,0.9207500000000001,0.84175,0.836,0.76825,0.78675,0.7347499999999999,0.47593281635775636,0.474781792259276,0.5524394060576555,0.5841509455870958,0.43290006850848683,0.534295497517641,0.6210547012252685,0.0022620448800455975
0.6579999999999999,0.64625,0.68375,0.62425,0.72875,0.5795,0.92025,0.8422499999999999,0.83575,0.769,0.7885,0.737,0.47236846680808153,0.4749000243418994,0.5507772020725389,0.586883302081087,0.4478336816320241,0.534295497517641,0.6210547012252685,0.0022620448800455975
0.65825,0.64625,0.68375,0.6245,0.72875,0.5792499999999999,0.91975,0.8427500000000001,0.8355,0.7697499999999999,0.79025,0.73925,0.4708940431894843,0.47450012170949685,0.5490211079041625,0.5901257911369716,0.46245981732247654,0.5345542198987121,0.621521898065602,0.002879714317083409
0.6585,0.64625,0.68375,0.62475,0.72875,0.579,0.91925,0.84325,0.83525,0.7705,0.792,0.7415,0.47188858364919845,0.4735577424627047,0.5466564662516953,0.5929839324724842,0.47540181639211393,0.5361148010332917,0.6221450455799962,0.0033974647387131174
0.65875,0.64625,0.68375,0.625,0.72875,0.57875,0.91875,0.84375,0.835,0.77125,0.79375,0.74375,0.4738394130124839,0.472556247174601,0.5441005668185137,0.5951292854615184,0.48547868584875153,0.5358577293064068,0.6213657811802171,0.002676452391555188
0.65875,0.64625,0.68375,0.625,0.72875,0.57875,0.91875,0.84375,0.835,0.77125,0.79375,0.74375,0.47651006711409394,0.4719963834892374,0.542066279514553,0.5955765247282832,0.4907966453920383,0.5366355438924171,0.6215214052296986,0.002468930081104592
0.65875,0.64625,0.68375,0.625,0.72875,0.57875,0.91875,0.84375,0.835,0.77125,0.79375,0.74375,0.4796814688597559,0.47143304238967904,0.5399554890983065,0.593647803423032,0.492361984355859,0.5374100571700545,0.6216773559037592,0.003292511195268689
0.65875,0.64625,0.68375,0.625,0.72875,0.57875,0.91875,0.84375,0.835,0.77125,0.79375,0.74375,0.4827485481795737,0.4710644364850297,0.5383176270125535,0.5885814158033564,0.489385045254056,0.5379357519917392,0.6213652883443137,0.002778506795015851
0.65875,0.6467499999999999,0.68425,0.62525,0.72875,0.57875,0.92,0.8445,0.8355,0.77275,0.7935,0.7452500000000001,0.48494975136488505,0.4719164029627569,0.5371700803282679,0.5799301217281234,0.48008385711113755,0.5356006543681326,0.6204313874995501,0.002165861494831621
0.65875,0.64725,0.68475,0.6255,0.72875,0.57875,0.92125,0.8452500000000001,0.836,0.77425,0.79325,0.74675,0.4858608338839239,0.47373161317244494,0.5353200959766318,0.5700908482412506,0.4680433257268849,0.5366388419894003,0.6205868453377071,0.0032926248488298806
0.65875,0.64775,0.68525,0.62575,0.72875,0.57875,0.9225,0.846,0.8365,0.77575,0.7929999999999999,0.7482500000000001,0.4853183572695344,0.4756198490802239,0.5319956880063984,0.5598602399587745,0.4546331229405572,0.5363735234143627,0.6210540421780407,0.0025684289030607514
0.65875,0.64825,0.6857500000000001,0.626,0.72875,0.57875,0.92375,0.84675,0.8370000000000001,0.77725,0.7927500000000001,0.7497499999999999,0.4832736377229892,0.47751851723058736,0.5269951663942692,0.5503144673500121,0.44399720396327963,0.5363735234143627,0.6210540421780407,0.0025684289030607514
0.65875,0.64875,0.68625,0.62625,0.72875,0.57875,0.925,0.8475,0.8375,0.77875,0.7925,0.75125,0.48096811211183366,0.4793963208957819,0.5221963348054387,0.5435499668824351,0.4369951075259378,0.5361180991302749,0.6213654526229482,0.004014675015363716
0.65875,0.64875,0.68625,0.62625,0.72875,0.57875,0.925,0.8475,0.8375,0.77875,0.7925,0.75125,0.4793928434815871,0.4806308029349376,0.5186841464686859,0.5405171233094705,0.43597484152778265,0.5358560786522205,0.6216766987892212,0.002365587170984488
0.65875,0.64875,0.68625,0.62625,0.72875,0.57875,0.925,0.8475,0.8375,0.77875,0.7925,0.75125,0.478878186180756,0.48164968529401536,0.5166568139931147,0.5384905680867267,0.4376799431996513,0.5374183072295969,0.6213652883443137,0.002982296722516918
0.65875,0.6485,0.6857500000000001,0.62575,0.7284999999999999,0.5785,0.9245,0.84775,0.8375,0.7795000000000001,0.7925,0.7515000000000001,0.4790311924053274,0.4827728900789373,0.5155370866223876,0.537728863218686,0.4405520604343623,0.5353402845442646,0.6212098305061567,0.0025686334794708986
0.65875,0.64825,0.68525,0.62525,0.7282500000000001,0.57825,0.924,0.848,0.8375,0.7802500000000001,0.7925,0.7517499999999999,0.47923635984282087,0.48369788225475535,0.5156309768056473,0.5389797367998227,0.44268343664983006,0.5353402845442646,0.6212098305061567,0.0025686334794708986
0.65875,0.648,0.68475,0.62475,0.728,0.578,0.9235,0.8482500000000001,0.8375,0.7809999999999999,0.7925,0.752,0.4790277149911326,0.4839517334909761,0.5153493062558682,0.54134172147264,0.4448287896388643,0.5353402845442646,0.6212098305061567,0.0025686334794708986
0.65875,0.64775,0.68425,0.62425,0.72775,0.57775,0.9229999999999999,0.8484999999999999,0.8375,0.78175,0.7925,0.75225,0.47776541363841846,0.48300587682998924,0.5140487533470112,0.5433403231482511,0.44647798683957146,0.5353369864472814,0.6208987486185181,0.002778927637916718
0.65875,0.6475,0.68375,0.62375,0.7275,0.5775,0.9225,0.84875,0.8375,0.7825,0.7925,0.7525,0.47642660917341867,0.48154536286817123,0.5126195361129464,0.5457162837202668,0.44744234749219697,0.5353369864472814,0.6208987486185181,0.002778927637916718
0.65875,0.6475,0.68375,0.62375,0.7275,0.5775,0.9225,0.84875,0.8375,0.7825,0.7925,0.7525,0.4743401606565358,0.47964669471780785,0.5110407900685051,0.5440111820483982,0.4487141857964993,0.5353402845442646,0.6201196484973737,0.0023639830321493856
0.65875,0.6475,0.68375,0.62375,0.7275,0.5775,0.9225,0.84875,0.8375,0.7825,0.7925,0.7525,0.4718642417498348,0.477987968146886,0.5093611990124144,0.5379874219442882,0.4505520620082248,0.5363735234143627,0.6208979272253458,0.002569923934477112
0.65875,0.6475,0.68375,0.62375,0.7275,0.5775,0.9225,0.84875,0.8375,0.7825,0.7925,0.7525,0.4689849427965365,0.47744896894669125,0.507177382898077,0.5287281621000929,0.4538364783245205,0.5356039556765054,0.6212098305061567,0.0027780768598300878
0.65875,0.6475,0.68375,0.62375,0.7275,0.5775,0.9225,0.84875,0.8375,0.7825,0.7925,0.7525,0.46609173418645894,0.47838091595089893,0.5049031540146747,0.5190146751351676,0.46003494088467445,0.5358560786522205,0.6205868453377071,0.00287927528961275
0.6585,0.647,0.6835,0.623,0.727,0.57725,0.9209999999999999,0.8475,0.8370000000000001,0.78125,0.79175,0.752,0.46228048822895296,0.47994575233856107,0.5024863511492854,0.5087141860451477,0.47113207562904313,0.5358560786522205,0.6205868453377071,0.00287927528961275
0.65825,0.6465000000000001,0.68325,0.62225,0.7265,0.5770000000000001,0.9195,0.84625,0.8365,0.78,0.7909999999999999,0.7515000000000001,0.4603296588656675,0.4829085092325347,0.5016969781270647,0.5014255765699986,0.48556953187129315,0.5361148010332917,0.6210540421780407,0.003397228339305838
0.6579999999999999,0.6459999999999999,0.6829999999999999,0.6214999999999999,0.726,0.57675,0.9179999999999999,0.845,0.836,0.77875,0.79025,0.7509999999999999,0.4605452585457454,0.487123135236638,0.5023611642382724,0.4962264150662423,0.5008455626130951,0.5353435826412479,0.6212095019488876,0.0023663314394480597
0.6577500000000001,0.6455,0.6827500000000001,0.62075,0.7254999999999999,0.5765,0.9165000000000001,0.84375,0.8355,0.7775,0.7895,0.7505,0.4658378829502382,0.49481517543554615,0.503098376047571,0.49712788258768303,0.5168972749965043,0.5368975643704714,0.6216770273464902,0.0026738831716233394
0.6575,0.645,0.6825,0.62,0.725,0.57625,0.915,0.8425,0.835,0.77625,0.78875,0.75,0.4745731474075877,0.5022394547414543,0.5041207358208436,0.5034800840419853,0.5319566744917071,0.5368975643704714,0.6216770273464902,0.0026738831716233394
0.6575,0.645,0.6825,0.62,0.725,0.57625,0.915,0.8425,0.835,0.77625,0.78875,0.75,0.4915811802343777,0.5084153423514275,0.5020342873039608,0.513032845037531,0.5444444458531486,0.5381911730644375,0.6215212409510641,0.0022601329024218952
0.657,0.644,0.6825,0.6195,0.7247499999999999,0.57575,0.9135,0.841,0.8340000000000001,0.77325,0.7875,0.7465,0.468192092360121,0.48113850540737907,0.4987829050318183,0.5093570935977441,0.5608525519726129,0.5371562867515425,0.620742633665823,0.0021582720347397212
0.6565000000000001,0.643,0.6825,0.619,0.7245,0.57525,0.912,0.8395,0.833,0.7702500000000001,0.78625,0.743,0.47313002051674374,0.5016969781270647,0.5305595159439441,0.43264849445360354,0.5951013292912813,0.5376737283022952,0.6205873401063005,0.0028878116462316057
0.6559999999999999,0.642,0.6825,0.6185,0.72425,0.57475,0.9105,0.838,0.8320000000000001,0.76725,0.785,0.7395,0.4656744444830824,0.4756407135653928,0.6109295128142713,0.3569741407042888,0.6316631751983889,0.6267460597503675,0.5238812546717703,0.3117353145671509
0.6555,0.6409999999999999,0.6825,0.618,0.7240000000000001,0.5742499999999999,0.909,0.8365,0.831,0.76425,0.78375,0.736,0.4630559515943944,0.46119553500017385,0.6412073582084362,0.3142278068246736,0.6435010512352408,0.5783595761443758,0.47703667828972146,0.559636810342446
0.655,0.64,0.6825,0.6175,0.72375,0.57375,0.9075,0.835,0.83,0.76125,0.7825,0.7325,0.4530827276836944,0.4473658587474354,0.6747365858747435,0.26886791552890976,0.6530118832216392,0.3965064456504511,0.4148069883945571,0.8126828533990884
0.655,0.64,0.6825,0.6175,0.72375,0.57375,0.9075,0.835,0.83,0.76125,0.7825,0.7325,0.4793163403693014,0.47724380150919776,0.6877595020342873,0.26127182851138,0.6442208284056863,0.0,0.3622734177753602,1.0
0.6502500000000001,0.63475,0.6775,0.61475,0.7177500000000001,0.56875,0.9025,0.8305,0.82125,0.7484999999999999,0.772,0.70675,0.4805508224084571,0.45730430851618736,0.6636575442500956,0.33736547300794295,0.6054996540475303,0.03917092624295173,0.33113407405165196,0.9405613780881108
0.6455,0.6295000000000001,0.6725,0.612,0.71175,0.56375,0.8975,0.826,0.8125,0.73575,0.7615000000000001,0.6809999999999999,0.4895121187884689,0.4803421775567688,0.5891574225405988,0.40903563370770046,0.5645911972540086,0.03917092624295173,0.33113407405165196,0.9405613780881108
0.64075,0.62425,0.6675,0.60925,0.70575,0.55875,0.8925,0.8215,0.80375,0.723,0.7509999999999999,0.6552500000000001,0.4904649302778454,0.490471885106235,0.5650102583718747,0.4429769357792043,0.545583509617594,0.14312156407820925,0.23488787988994533,0.8755017322510779
0.636,0.619,0.6625,0.6065,0.69975,0.55375,0.8875,0.8170000000000001,0.795,0.71025,0.7404999999999999,0.6295000000000001,0.4918593733699621,0.5013840108495323,0.5408109329902284,0.47836477882964645,0.5254297700485429,0.16965498552864408,0.01995229533992796,0.813998481694932
0.63125,0.61375,0.6575,0.60375,0.69375,0.54875,0.8825,0.8125,0.78625,0.6975,0.73,0.60375,0.4964356504503251,0.5005737733421428,0.5374830476058003,0.4898462609118512,0.5143815517710885,0.13681051259389412,0.00918404344538269,0.7942741613835913
0.63125,0.61375,0.6575,0.60375,0.69375,0.54875,0.8825,0.8125,0.78625,0.6975,0.73,0.60375,0.49614702507215636,0.5003859929756234,0.5351844768230344,0.49163521972764623,0.5138644309317077,0.17392485859898932,0.0,0.8153530834205307
0.63125,0.61375,0.6575,0.60375,0.69375,0.54875,0.8825,0.8125,0.78625,0.6975,0.73,0.60375,0.49638348923740305,0.49980178739089615,0.5353061863198526,0.49292802209933817,0.5110132778736823,0.2453043159545824,0.07087344603669692,0.8909214492608024
0.63125,0.61375,0.6575,0.60375,0.69375,0.54875,0.8825,0.8125,0.78625,0.6975,0.73,0.60375,0.49719024933059774,0.5003338317627013,0.5357026115380603,0.49460517109844204,0.5088888890613337,0.38206366148008863,0.14960769431028598,0.7868253095809029
0.6305,0.6132500000000001,0.657,0.60175,0.693,0.54675,0.88125,0.812,0.78825,0.698,0.73275,0.6075,0.4971207010467017,0.5000104322425845,0.535869527419411,0.4948427672867988,0.5075960867989378,0.38206366148008863,0.14960769431028598,0.7868253095809029
0.62975,0.61275,0.6565000000000001,0.59975,0.6922499999999999,0.5447500000000001,0.88,0.8115000000000001,0.79025,0.6984999999999999,0.7354999999999999,0.61125,0.4969259658517926,0.49989220015996105,0.5354452828876447,0.49513626838350117,0.5073794550058586,0.3958699482579645,0.17358493795453017,0.7761512022143163
0.629,0.61225,0.6559999999999999,0.59775,0.6915,0.54275,0.87875,0.8109999999999999,0.7922499999999999,0.6990000000000001,0.7382500000000001,0.615,0.4967660047988316,0.4997252842786104,0.5351566575094759,0.49551362684272193,0.5064779874844179,0.4180510153109673,0.21982050831357922,0.7451527603682713
0.62825,0.61175,0.6555,0.59575,0.69075,0.5407500000000001,0.8775,0.8105,0.79425,0.6995,0.741,0.61875,0.4965956115032862,0.49967660047988316,0.5351566575094759,0.49676450036921066,0.5052760308073796,0.4285021708286296,0.23507350701615295,0.7266794722147353
0.6275,0.61125,0.655,0.59375,0.69,0.53875,0.87625,0.81,0.79625,0.7,0.74375,0.6225,0.4963973988941823,0.4997878777341169,0.5348263031609695,0.49824598186121694,0.5037945493290353,0.4285021708286296,0.23507350701615295,0.7266794722147353
0.6275,0.61125,0.655,0.59375,0.69,0.53875,0.87625,0.81,0.79625,0.7,0.74375,0.6225,0.4966373404736238,0.49996174844385716,0.5347602322912682,0.4998113207703896,0.502557652029633,0.4471089710383154,0.25654138678789506,0.6783473588127499
0.6275,0.61125,0.655,0.59375,0.69,0.53875,0.87625,0.81,0.79625,0.7,0.74375,0.6225,0.4971415655318705,0.5001564836387662,0.5353270508050214,0.5016561844945303,0.5018658281330802,0.4471089710383154,0.25654138678789506,0.6783473588127499
0.62925,0.6125,0.65675,0.59475,0.69125,0.5395,0.8775,0.81,0.79825,0.7020000000000001,0.7447499999999999,0.625,0.49745453280940294,0.5003442640052856,0.5355843794554369,0.5033612858385109,0.5024109014812818,0.45598799726487255,0.2738215935034502,0.6624313829450924
0.631,0.61375,0.6585,0.59575,0.6925,0.54025,0.87875,0.81,0.80025,0.7040000000000001,0.74575,0.6275,0.49752408109329904,0.5007163473241297,0.5355774246270473,0.5040880503574277,0.5034870720052466,0.46435122938347384,0.29359258707698216,0.6452782809199284
0.63275,0.615,0.66025,0.59675,0.69375,0.541,0.88,0.81,0.8022499999999999,0.706,0.74675,0.63,0.4975171262649094,0.50089021803387,0.5357825920645408,0.5043046820958589,0.5050384347283188,0.4875952278135925,0.33219771056579217,0.5989680487847638
0.6345000000000001,0.61625,0.662,0.59775,0.695,0.54175,0.88125,0.81,0.80425,0.708,0.74775,0.6325,0.49745453280940294,0.5009041276906492,0.5360712174427096,0.5041788959427853,0.5065967855785963,0.5577080232442425,0.4475312498645909,0.42478615208953036
0.63625,0.6175,0.66375,0.59875,0.69625,0.5425,0.8825,0.81,0.80625,0.71,0.74875,0.635,0.4971624300170393,0.500872830962896,0.5357756372361512,0.5036477987943461,0.5075262055542098,0.5577080232442425,0.4475312498645909,0.42478615208953036
0.63625,0.6175,0.66375,0.59875,0.69625,0.5425,0.8825,0.81,0.80625,0.71,0.74875,0.635,0.4968911917098446,0.5010188823590778,0.5355391730709045,0.5030677848237806,0.5079385047450906,0.5639965307744949,0.4542197385062173,0.4057077645828245
0.63625,0.6175,0.66375,0.59875,0.69625,0.5425,0.8825,0.81,0.80625,0.71,0.74875,0.635,0.496776437041416,0.5010293146016622,0.5354105087456967,0.5023759609272278,0.5081481483699786,0.5700758066467618,0.4649489906529361,0.36907988390196506
0.63825,0.61925,0.6655,0.60025,0.698,0.54325,0.8855,0.8105,0.8107500000000001,0.71475,0.75325,0.6465000000000001,0.4967207984142991,0.5010536565010258,0.5354000765031123,0.5018378756652454,0.508162124597065,0.5714255054691698,0.4697695152590905,0.35205099158075587
0.6402500000000001,0.621,0.6672499999999999,0.60175,0.69975,0.544,0.8885,0.8109999999999999,0.81525,0.7195,0.75775,0.6579999999999999,0.49672427582849393,0.5009701985603505,0.535671314810307,0.5015443745958671,0.5081062195794234,0.5714255054691698,0.4697695152590905,0.35205099158075587
0.64225,0.62275,0.669,0.6032500000000001,0.7015,0.5447500000000001,0.8915000000000001,0.8115000000000001,0.81975,0.72425,0.76225,0.6695,0.49689466912403935,0.501710887783844,0.5358660500052161,0.5017260657392583,0.5083298394313978,0.5762458139056582,0.489527353013035,0.301970168766589
0.64425,0.6245,0.6707500000000001,0.60475,0.70325,0.5455,0.8945000000000001,0.812,0.8242499999999999,0.7290000000000001,0.7667499999999999,0.6809999999999999,0.49690857878081857,0.5026532670306361,0.5363807073060473,0.5015303983687807,0.5085464711151809,0.5788940701732017,0.4966845189353951,0.2853415324648988
0.64625,0.62625,0.6725,0.60625,0.705,0.54625,0.8975,0.8125,0.82875,0.73375,0.77125,0.6925,0.496901623952429,0.5035365302361164,0.53695448064819,0.5014605171513767,0.5087071978906185,0.5788940701732017,0.4966845189353951,0.2853415324648988
0.64625,0.62625,0.6725,0.60625,0.705,0.54625,0.8975,0.8125,0.82875,0.73375,0.77125,0.6925,0.49695378516535105,0.5047883993462461,0.5377994922975275,0.5003563941459152,0.5098183089822992,0.5794577107728359,0.5035301101342132,0.2689145643410845
0.64625,0.62625,0.6725,0.60625,0.705,0.54625,0.8975,0.8125,0.82875,0.73375,0.77125,0.6925,0.49703724310602637,0.5061306812254408,0.5388427165559689,0.4993011879899041,0.5116841372110135,0.5774687752427256,0.5178455919293748,0.23709252319630542
0.64625,0.62625,0.6725,0.60625,0.705,0.54625,0.8975,0.8125,0.82875,0.73375,0.77125,0.6925,0.49674861772785756,0.5081162847306743,0.5394025802413326,0.49841369669554975,0.5140251575978493,0.559940305022653,0.6269673772511299,0.0681130883899579
0.64625,0.62625,0.6725,0.60625,0.705,0.54625,0.8975,0.8125,0.82875,0.73375,0.77125,0.6925,0.4970024689640783,0.5108843064297388,0.5391522064193066,0.4990635918835193,0.5162264157138211,0.559940305022653,0.6269673772511299,0.0681130883899579
0.64775,0.62725,0.67375,0.60775,0.70625,0.54825,0.90125,0.815,0.83125,0.7395,0.774,0.7025,0.49724936537190945,0.5130855096150503,0.538129846646034,0.5005590496299359,0.5181761010864618,0.5552866098945247,0.6268112622984349,0.0618421076746643
0.64925,0.62825,0.675,0.60925,0.7075,0.55025,0.905,0.8175,0.83375,0.7452500000000001,0.7767499999999999,0.7125,0.49727370727127307,0.5150432938067253,0.5367875647668394,0.5031236898140982,0.5184416497289913,0.5552866098945247,0.6268112622984349,0.0618421076746643
0.6509999999999999,0.62975,0.677,0.61175,0.7095,0.55475,0.9109999999999999,0.8220000000000001,0.8372499999999999,0.75375,0.7809999999999999,0.7265,0.49701985603505233,0.513909656779219,0.5340925687658657,0.5069042630116811,0.5110831588998184,0.5508982365528238,0.6296121415068635,0.05064677013912884
0.65275,0.63125,0.679,0.61425,0.7115,0.55925,0.917,0.8265,0.84075,0.76225,0.78525,0.7404999999999999,0.4967729596272212,0.5110720867962583,0.5318705010953855,0.5098881903363233,0.5018867925146958,0.5493558029801259,0.630702159237012,0.04561250188237899
0.6545000000000001,0.63275,0.6809999999999999,0.61675,0.7134999999999999,0.56375,0.9229999999999999,0.831,0.84425,0.77075,0.7895,0.7545000000000001,0.495618458114546,0.5052265535347915,0.5302848002225545,0.510859539047844,0.4919636614467126,0.5488433101805428,0.6330376506027763,0.04108934538038741
0.6547499999999999,0.63325,0.68175,0.61775,0.7142499999999999,0.56625,0.92525,0.833,0.8452500000000001,0.7735,0.7909999999999999,0.7585,0.49403623465590984,0.49921758180616893,0.5293285113189832,0.5089238297246838,0.48174004155101985,0.5454964225570926,0.6352171912944801,0.0306086250684839
0.655,0.63375,0.6825,0.61875,0.715,0.56875,0.9275,0.835,0.84625,0.77625,0.7925,0.7625,0.49410230552561113,0.4929165072851827,0.5285634801961262,0.5062054508786271,0.4718728156099742,0.5454964225570926,0.6352171912944801,0.0306086250684839
0.655,0.63375,0.6825,0.61875,0.715,0.56875,0.9275,0.835,0.84625,0.77625,0.7925,0.7625,0.494408317974754,0.48989463434989744,0.5286052091664638,0.5022292102832426,0.46900768632486245,0.5454964225570926,0.6352171912944801,0.0306086250684839
0.655,0.63375,0.6825,0.61875,0.715,0.56875,0.9275,0.835,0.84625,0.77625,0.7925,0.7625,0.49520812323955904,0.4866536843203394,0.5294641304725806,0.49918937799560686,0.4663941289087138,0.5392821495057742,0.6377084690556704,0.02310945396338914
0.655,0.63375,0.6825,0.61875,0.715,0.56875,0.9275,0.835,0.84625,0.77625,0.7925,0.7625,0.49753799075007826,0.48498800292102795,0.5306603609555934,0.4971488468736646,0.46400419156313155,0.5164585412253068,0.6339710586116365,0.01580525261999807
0.6555,0.63475,0.6825,0.6195,0.71625,0.5692499999999999,0.92675,0.8365,0.84625,0.77725,0.7925,0.76275,0.5050109538547136,0.4835657405153528,0.5263483673540356,0.49381551344834046,0.46876310153113043,0.5050120926154961,0.6335056688362823,0.022777763513714643
0.6559999999999999,0.63575,0.6825,0.62025,0.7175,0.56975,0.9259999999999999,0.838,0.84625,0.77825,0.7925,0.763,0.5065618805855966,0.48492888687971625,0.5299196717321,0.4942348006981164,0.4723969240710661,0.4485741642715375,0.6310119249628849,0.04141433741388975
0.6565000000000001,0.6367499999999999,0.6825,0.621,0.71875,0.57025,0.92525,0.8395,0.84625,0.77925,0.7925,0.76325,0.5066592481830511,0.4872448447334562,0.5322182425148659,0.49656883291676107,0.4764500338607778,0.4485741642715375,0.6310119249628849,0.04141433741388975
0.657,0.63775,0.6825,0.62175,0.72,0.57075,0.9245,0.841,0.84625,0.7802500000000001,0.7925,0.7635,0.5066418611120771,0.491059568105157,0.5332127829745801,0.4973305380307178,0.4833822495998717,0.4725250441171051,0.6484569591968322,0.0370972880731497
0.6575,0.63875,0.6825,0.6225,0.72125,0.57125,0.92375,0.8425,0.84625,0.78125,0.7925,0.76375,0.5051917793928434,0.49450568557220853,0.5332858086726711,0.4978686233200242,0.49181691100765745,0.47604157017779397,0.6423960593908005,0.07081366651003387
0.6575,0.63875,0.6825,0.6225,0.72125,0.57125,0.92375,0.8425,0.84625,0.78125,0.7925,0.76375,0.4990437110964287,0.49851514413881837,0.5390409291650728,0.5019846262409207,0.4935709292352435,0.4949645573716849,0.6403825000333099,0.09172985223412126
0.65675,0.6385000000000001,0.6822499999999999,0.6225,0.721,0.57225,0.92025,0.84025,0.84025,0.774,0.7875,0.7502500000000001,0.4974023715964809,0.4999756581006364,0.5367910421810342,0.5032704403897733,0.49672257154450045,0.5136354215898605,0.6449065732137439,0.1062884149118008
0.6559999999999999,0.63825,0.682,0.6225,0.72075,0.57325,0.91675,0.838,0.8342499999999999,0.7667499999999999,0.7825,0.73675,0.4971415655318705,0.5005181347150259,0.5358382306916577,0.502592592720307,0.49933612855078907,0.5356977121920132,0.6586232419920031,0.12472955144704907
0.6552500000000001,0.638,0.68175,0.6225,0.7204999999999999,0.5742499999999999,0.91325,0.83575,0.82825,0.7595000000000001,0.7775,0.7232500000000001,0.4966860242723511,0.5000765031122857,0.5353931216747226,0.5026205452018038,0.4998812019536386,0.5385535494633557,0.6603390414927669,0.12749391324456347
0.6545000000000001,0.63775,0.6815000000000001,0.6225,0.7202500000000001,0.57525,0.90975,0.8334999999999999,0.8222499999999999,0.75225,0.7725,0.70975,0.4967103661717147,0.5002955802065584,0.53544180547345,0.5025017471349494,0.49939902165464983,0.5393346621463492,0.6578469365403347,0.12862909670382372
0.65375,0.6375,0.68125,0.6225,0.72,0.57625,0.90625,0.83125,0.81625,0.745,0.7675,0.69625,0.4966895016865459,0.5003512188336753,0.5354522377160343,0.502103424253127,0.4989657581982805,0.5696810016369994,0.6145529104200086,0.1207944215849898
0.65375,0.6375,0.68125,0.6225,0.72,0.57625,0.90625,0.83125,0.81625,0.745,0.7675,0.69625,0.49664777271620825,0.5004520638453246,0.5354452828876447,0.5015443746026981,0.4986093640660273,0.5696810016369994,0.6145529104200086,0.1207944215849898
0.65375,0.6375,0.68125,0.6225,0.72,0.57625,0.90625,0.83125,0.81625,0.745,0.7675,0.69625,0.4967207984142991,0.5005146573008311,0.5354174635740863,0.5008665269127387,0.4983508036190129,0.5733130060515552,0.6112833539308462,0.12234104717198592
0.65375,0.6375,0.68125,0.6225,0.72,0.57625,0.90625,0.83125,0.81625,0.745,0.7675,0.69625,0.4968251208401433,0.5004833605730779,0.5354000765031123,0.5002865129148492,0.49822501743861536,0.5852406042997448,0.6084816513965552,0.12327141652279655
0.65375,0.6375,0.6809999999999999,0.62275,0.72,0.57625,0.90625,0.83075,0.816,0.7432500000000001,0.76725,0.69375,0.49688771429564976,0.5004242445317661,0.5353931216747226,0.49983927321090044,0.49816911247562173,0.5878393698442026,0.6086380968392091,0.1257368694543776
0.65375,0.6375,0.6807500000000001,0.623,0.72,0.57625,0.90625,0.83025,0.81575,0.7415,0.767,0.69125,0.4969711722363251,0.500410334874987,0.5354105087456967,0.49941998598844844,0.4981970649571185,0.5891263791328126,0.6080157707179874,0.12686726257839587
0.65375,0.6375,0.6805,0.6232500000000001,0.72,0.57625,0.90625,0.82975,0.8155,0.7397499999999999,0.7667499999999999,0.68875,0.4970685398337796,0.500302535034948,0.535459192544424,0.49915443742105986,0.4982739342880657,0.5893735533573582,0.608640396740092,0.12808702377065015
0.65375,0.6375,0.68025,0.6235,0.72,0.57625,0.90625,0.8292499999999999,0.81525,0.738,0.7665000000000001,0.68625,0.49711374621831206,0.5001530062245714,0.5354661473728136,0.49918937802293084,0.4984276729499601,0.5901447717494017,0.610042151539727,0.1303420383661249
0.65375,0.6375,0.68,0.62375,0.72,0.57625,0.90625,0.82875,0.815,0.73625,0.76625,0.68375,0.4970824494905588,0.5000730256980909,0.5354974441005668,0.49943396224285885,0.4985604472439009,0.5901447717494017,0.610042151539727,0.1303420383661249
0.65375,0.6375,0.68,0.62375,0.72,0.57625,0.90625,0.82875,0.815,0.73625,0.76625,0.68375,0.4970754946621692,0.5000278193135584,0.5355496053134889,0.499685534583161,0.4986932215378417,0.5885808925178391,0.6100419872610925,0.1325996254287761
0.65375,0.6375,0.68,0.62375,0.72,0.57625,0.90625,0.82875,0.815,0.73625,0.76625,0.68375,0.49706158500539,0.5000139096567792,0.5355982891122162,0.5000978336920698,0.4987421383599681,0.5693480447769943,0.6147141218757523,0.13831367706682607
0.65375,0.6375,0.68,0.62375,0.72,0.57625,0.90625,0.82875,0.815,0.73625,0.76625,0.68375,0.49703028827763673,0.49997218068644156,0.535619153597385,0.5005660377366482,0.4987211739920145,0.5693480447769943,0.6147141218757523,0.13831367706682607
0.65375,0.6375,0.68,0.62375,0.72,0.57625,0.90625,0.82875,0.815,0.73625,0.76625,0.68375,0.4970650624195848,0.5000034774141948,0.5356087213548005,0.5009224318689013,0.4986233402931137,0.5688223531666993,0.6150260251565632,0.13954141219293356
0.6535,0.6375,0.67975,0.6235,0.7197499999999999,0.5765,0.9059999999999999,0.82875,0.81475,0.73575,0.7659999999999999,0.6815000000000001,0.49712417846089646,0.500069548283896,0.5356156761831902,0.5011670160888293,0.4985394828486233,0.568557031380272,0.6153379284373742,0.1399427112274198
0.65325,0.6375,0.6795,0.6232500000000001,0.7195,0.57675,0.90575,0.82875,0.8145,0.7352500000000001,0.76575,0.67925,0.4970859269047536,0.500159961052961,0.5355809020412421,0.5013766597068863,0.49846960163121934,0.5677742680430923,0.6168958001223941,0.14127435558310658
0.653,0.6375,0.67925,0.623,0.71925,0.5770000000000001,0.9055,0.82875,0.8142499999999999,0.7347499999999999,0.7655,0.677,0.4970859269047536,0.5002399415794415,0.5355356956567097,0.5013906359476347,0.4984067085546825,0.5677742680430923,0.6168958001223941,0.14127435558310658
0.65275,0.6375,0.679,0.62275,0.7190000000000001,0.57725,0.9052500000000001,0.82875,0.8140000000000001,0.73425,0.7652500000000001,0.67475,0.4971346107034809,0.5003477414194805,0.5354487603018395,0.5013277428710979,0.4984486372632657,0.5732173227023669,0.6172086890750119,0.14291653458986323
0.6525,0.6375,0.67875,0.6225,0.71875,0.5775,0.905,0.82875,0.81375,0.73375,0.765,0.6725,0.49709288173314325,0.5003894703898182,0.5354348506450604,0.5011670161093223,0.4984835778583057,0.5799688355205058,0.6204802207731678,0.14445157725535165
0.6525,0.6375,0.67875,0.6225,0.71875,0.5775,0.905,0.82875,0.81375,0.73375,0.765,0.6725,0.49702681086344197,0.5003999026324025,0.5354348506450604,0.5009853249659311,0.49850454222625934,0.5830833951729194,0.6190794516453396,0.14352734779464105
0.6525,0.6375,0.67875,0.6225,0.71875,0.5775,0.905,0.82875,0.81375,0.73375,0.765,0.6725,0.4970581075911952,0.5003825155614285,0.5353931216747226,0.5008176100701194,0.49850454222625934,0.5830833951729194,0.6190794516453396,0.14352734779464105
0.6525,0.6375,0.67875,0.6225,0.71875,0.5775,0.905,0.82875,0.81375,0.73375,0.765,0.6725,0.4971207010467017,0.5003651284904544,0.5353861668463331,0.500663871421887,0.4985394828486233,0.5874932141734855,0.6186130761981785,0.14383631532546434
0.65275,0.638,0.679,0.62275,0.7190000000000001,0.57775,0.9045000000000001,0.82875,0.81325,0.7334999999999999,0.7645000000000001,0.6709999999999999,0.4971346107034809,0.5003512188336753,0.5354139861598916,0.500489168419363,0.4985185185079937,0.5882743300678683,0.6169007323468082,0.1442456045300268
0.653,0.6385000000000001,0.67925,0.623,0.71925,0.578,0.904,0.82875,0.8127500000000001,0.7332500000000001,0.764,0.6695,0.49716938484542894,0.5004068574607922,0.53544180547345,0.5003284416507564,0.4985883997253977,0.589307565726577,0.6169004037895393,0.14496554333811815
0.65325,0.639,0.6795,0.6232500000000001,0.7195,0.57825,0.9035,0.82875,0.8122499999999999,0.733,0.7635,0.6679999999999999,0.49719372674479256,0.5004311993601558,0.5354105087456967,0.5001467505278582,0.4987071977649281,0.589307565726577,0.6169004037895393,0.14496554333811815
0.6535,0.6395000000000001,0.67975,0.6235,0.7197499999999999,0.5785,0.903,0.82875,0.81175,0.73275,0.763,0.6665000000000001,0.4972180686441562,0.5004242445317661,0.5354383280592552,0.4999930118796258,0.4988399720588689,0.5934603130002583,0.6172127999062537,0.14568462812087826
0.65375,0.64,0.68,0.62375,0.72,0.57875,0.9025,0.82875,0.81125,0.7325,0.7625,0.665,0.49717286225962376,0.5004033800465973,0.5354487603018395,0.4999091544351354,0.49898672257989607,0.5895580412594952,0.6158125255470187,0.14802932511786684
0.65375,0.64,0.68,0.62375,0.72,0.57875,0.9025,0.82875,0.81125,0.7325,0.7625,0.665,0.4971380881176757,0.5003755607330389,0.535459192544424,0.4998532494721418,0.49913347310092326,0.5895580412594952,0.6158125255470187,0.14802932511786684
0.65375,0.64,0.68,0.62375,0.72,0.57875,0.9025,0.82875,0.81125,0.7325,0.7625,0.665,0.4971172236325069,0.5003303543485065,0.535476579615398,0.4998812019536386,0.49919636617746005,0.5903391539424887,0.6151901974931072,0.14792525417550617
0.65375,0.64,0.68,0.62375,0.72,0.57875,0.9025,0.82875,0.81125,0.7325,0.7625,0.665,0.4971415655318705,0.5002851479639739,0.5355078763431512,0.5000209643611226,0.4992243186589569,0.5934652617514279,0.6220435175185054,0.14935532056683792
0.65325,0.64,0.6795,0.6235,0.72,0.57875,0.9009999999999999,0.8275,0.8109999999999999,0.732,0.76225,0.664,0.4971519977744549,0.5002434189936363,0.5355496053134889,0.5001118099259871,0.49940600978868604,0.595539986339777,0.621264417397361,0.14915440639915947
0.65275,0.64,0.679,0.6232500000000001,0.72,0.57875,0.8995000000000001,0.82625,0.8107500000000001,0.7315,0.762,0.6629999999999999,0.4972076364015718,0.5002921027923636,0.5355356956567097,0.5001607267686066,0.49957372467083583,0.595539986339777,0.621264417397361,0.14915440639915947
0.65225,0.64,0.6785,0.623,0.72,0.57875,0.898,0.825,0.8105,0.731,0.7617499999999999,0.662,0.49723893312932504,0.5003407865910908,0.5355043989289564,0.5001816911297292,0.4997414395529856,0.594498500621526,0.6212650745118989,0.14926201618869117
0.652,0.63975,0.6779999999999999,0.623,0.7197499999999999,0.57875,0.895,0.8240000000000001,0.8095,0.7304999999999999,0.76125,0.6607500000000001,0.4972145912299614,0.5003233995201168,0.5354452828876447,0.500209643611226,0.499930118803089,0.5950142947294818,0.6209523498379156,0.1466963591336256
0.6517499999999999,0.6395000000000001,0.6775,0.623,0.7195,0.57875,0.892,0.823,0.8085,0.73,0.76075,0.6595,0.4972458879577146,0.5003755607330389,0.5353792120179435,0.5001886792501034,0.5001607267686066,0.596573225209875,0.6204846582289887,0.14639468101749273
0.652,0.63925,0.6775,0.6232500000000001,0.71925,0.57875,0.8905,0.82325,0.8077500000000001,0.73,0.7605,0.65925,0.49725284278610427,0.5004172897033766,0.5353235733908266,0.5002236198519744,0.5003004891760906,0.5978717826550107,0.6201729211595021,0.14495791101439742
0.65225,0.639,0.6775,0.6235,0.7190000000000001,0.57875,0.889,0.8234999999999999,0.807,0.73,0.7602500000000001,0.659,0.4972319783009354,0.5003790381472337,0.5353444378759954,0.5002725366945938,0.5004682040719024,0.5983991249194922,0.6209508693975154,0.14403482588268582
0.6525,0.63875,0.6775,0.62375,0.71875,0.57875,0.8875,0.82375,0.80625,0.73,0.76,0.65875,0.49719372674479256,0.5003755607330389,0.535334005633411,0.5003354297779615,0.500768693261655,0.5991719907543327,0.6198608536000567,0.14465654723154234
0.6525,0.63875,0.6775,0.62375,0.71875,0.57875,0.8875,0.82375,0.80625,0.73,0.76,0.65875,0.49717286225962376,0.5004207671175713,0.5354139861598916,0.5003773585002068,0.5011041230464475,0.5991719907543327,0.6198608536000567,0.14465654723154234
0.6525,0.63875,0.6775,0.62375,0.71875,0.57875,0.8875,0.82375,0.80625,0.73,0.76,0.65875,0.4971207010467017,0.5003999026324025,0.5355078763431512,0.500384346620581,0.5014116003429123,0.600991291058594,0.6186157065890201,0.1444533002433393
0.6525,0.63875,0.6775,0.62375,0.71875,0.57875,0.8875,0.82375,0.80625,0.73,0.76,0.65875,0.49704419793441595,0.5003407865910908,0.5355426504850993,0.5003633822594584,0.5016002795861847,0.6092604904821932,0.6167502067330652,0.15657033438879306
0.6525,0.63875,0.6775,0.62375,0.71875,0.57875,0.8875,0.82375,0.80625,0.73,0.76,0.65875,0.49695030775115623,0.5003442640052856,0.5355183085857357,0.5003633822594584,0.5017470301072119,0.6102887806011216,0.6161285377263815,0.15800827210104848
0.652,0.6385000000000001,0.677,0.6232500000000001,0.718,0.578,0.88725,0.823,0.8057500000000001,0.7295,0.75925,0.6585,0.49689466912403935,0.5003303543485065,0.5355461278992941,0.5003983228544984,0.501684137003351,0.6102887806011216,0.6161285377263815,0.15800827210104848
0.6515000000000001,0.63825,0.6765000000000001,0.62275,0.7172499999999999,0.57725,0.887,0.8222499999999999,0.80525,0.7290000000000001,0.7585,0.65825,0.4969155336092082,0.5002573286504155,0.5354835344437876,0.5005450733686946,0.5015583508229535,0.6113170675086605,0.6165970507284809,0.16314813620622573
0.6509999999999999,0.638,0.6759999999999999,0.62225,0.7165,0.5765,0.8867499999999999,0.8215,0.80475,0.7284999999999999,0.75775,0.6579999999999999,0.4969398755085718,0.5002642834788051,0.5354139861598916,0.5007547169867516,0.5015234102279135,0.6105326535172944,0.6155070329983324,0.1654070832149177
0.6505,0.63775,0.6755,0.62175,0.71575,0.57575,0.8865000000000001,0.82075,0.80425,0.728,0.757,0.6577500000000001,0.4970059463782731,0.5003268769343117,0.5353792120179435,0.5009503843572292,0.5016212439268143,0.6123404088764193,0.6148845425984761,0.16571507917015502
0.65,0.6375,0.675,0.62125,0.715,0.575,0.88625,0.82,0.80375,0.7275,0.75625,0.6575,0.4970407205202212,0.5003512188336753,0.5353722571895538,0.5010971348919183,0.5018169113246158,0.6136307162620126,0.6119263965542213,0.1695256336885168
0.65,0.6375,0.675,0.62125,0.715,0.575,0.88625,0.82,0.80375,0.7275,0.75625,0.6575,0.4970685398337796,0.5003651284904544,0.5353618249469694,0.5011949685908191,0.5020894480533646,0.6141448629271715,0.6106804281500122,0.17004657939883833
0.65,0.6375,0.675,0.62125,0.715,0.575,0.88625,0.82,0.80375,0.7275,0.75625,0.6575,0.49708940431894844,0.5004207671175713,0.5354313732308655,0.5011111111599907,0.502487770907863,0.6144019346540563,0.6083447705729236,0.17097189863483853
0.65,0.6375,0.675,0.62125,0.715,0.575,0.88625,0.82,0.80375,0.7275,0.75625,0.6575,0.49703376569183155,0.500445109016935,0.5354244184024759,0.5009503843845531,0.502837176940235,0.6159592144802631,0.6083446062942891,0.17231556493950367
0.6495000000000001,0.6365,0.67525,0.62025,0.7142499999999999,0.57325,0.8855,0.8190000000000001,0.80425,0.7275,0.7567499999999999,0.6595,0.49696073999374063,0.500445109016935,0.5354800570295928,0.5007407407733272,0.5031236898687461,0.6478446798124595,0.5968285213344662,0.1962352298121183
0.649,0.6355,0.6755,0.61925,0.7134999999999999,0.5715,0.8847499999999999,0.818,0.80475,0.7275,0.75725,0.6615000000000001,0.496919011023403,0.500462496087909,0.5354974441005668,0.5004612159515281,0.5032634522489061,0.6478446798124595,0.5968285213344662,0.1962352298121183
0.6485,0.6345000000000001,0.6757500000000001,0.6182500000000001,0.7127500000000001,0.56975,0.884,0.8170000000000001,0.80525,0.7275,0.75775,0.6635,0.49683903049692246,0.5005111798866363,0.5355043989289564,0.5001467505278582,0.503361285893159,0.6470635639180766,0.5955827172088916,0.19674935046372802
0.648,0.6335000000000001,0.6759999999999999,0.61725,0.7120000000000001,0.568,0.88325,0.816,0.8057500000000001,0.7275,0.75825,0.6655,0.4967103661717147,0.5005424766143896,0.5354244184024759,0.499895178194387,0.5031027254461445,0.6452459142680018,0.5946475021350521,0.19778278216272485
0.64725,0.6315,0.6757500000000001,0.616,0.711,0.56475,0.88275,0.81475,0.8057500000000001,0.7275,0.75925,0.67,0.49662343081684457,0.5005077024724415,0.5354348506450604,0.4999161425623406,0.5024318658697284,0.6457633558187545,0.5954266022561965,0.19839723617815433
0.647,0.6305,0.67525,0.61575,0.71075,0.56325,0.883,0.8145,0.80525,0.7275,0.7597499999999999,0.6725,0.4966199534026498,0.5005146573008311,0.5353965990889175,0.5000838574513214,0.5017470300730569,0.6457633558187545,0.5954266022561965,0.19839723617815433
0.6467499999999999,0.6295000000000001,0.67475,0.6154999999999999,0.7105,0.56175,0.88325,0.8142499999999999,0.80475,0.7275,0.7602500000000001,0.675,0.49657822443231214,0.500479883158883,0.5354278958166707,0.5004402515767435,0.5011670160819983,0.6408212490139269,0.5983857359049483,0.20178646785289472
0.6465000000000001,0.6285000000000001,0.67425,0.61525,0.71025,0.56025,0.8835,0.8140000000000001,0.80425,0.7275,0.76075,0.6775,0.49658170184650696,0.5004311993601558,0.5354278958166707,0.5008315863040367,0.5006149545860985,0.6408179477055541,0.5996317043091574,0.2038393882320014
0.64625,0.6275,0.67375,0.615,0.71,0.55875,0.88375,0.81375,0.80375,0.7275,0.76125,0.68,0.49656779218972774,0.5004138122891818,0.535459192544424,0.5012438853992836,0.5003214535372131,0.6408179477055541,0.5996317043091574,0.2038393882320014
0.64625,0.6275,0.67375,0.615,0.71,0.55875,0.88375,0.81375,0.80375,0.7275,0.76125,0.68,0.4965469277045589,0.5004416316027402,0.5354487603018395,0.5014605171103906,0.5002935010557163,0.6397814107384728,0.600410473940343,0.2050715058394284
0.64625,0.6275,0.67375,0.615,0.71,0.55875,0.88375,0.81375,0.80375,0.7275,0.76125,0.68,0.496456514935494,0.5004416316027402,0.5354313732308655,0.5016002795042127,0.5002585604538454,0.6524703298763668,0.6044680093276713,0.22242745674060677
0.6459999999999999,0.627,0.67375,0.61475,0.70975,0.55825,0.88325,0.8127500000000001,0.8035,0.72725,0.76075,0.68,0.4964460826929096,0.5005216121292207,0.5353792120179435,0.5016212438721662,0.5001257861667356,0.6623281522873772,0.6068082744372847,0.23054104808978712
0.64575,0.6265,0.67375,0.6145,0.7095,0.55775,0.88275,0.81175,0.80325,0.727,0.7602500000000001,0.68,0.4964113085509615,0.5005772507563376,0.5353965990889175,0.5015932914179935,0.5,0.6631010181222177,0.6060295028734092,0.23115977612856634
0.6455,0.626,0.67375,0.61425,0.7092499999999999,0.55725,0.88225,0.8107500000000001,0.8029999999999999,0.72675,0.7597499999999999,0.68,0.49642869562193553,0.5006120248982856,0.5353444378759954,0.5015234102279135,0.49983927323139343,0.662576977166109,0.6058748664284245,0.23177445355442464
0.6452500000000001,0.6255,0.67375,0.614,0.7090000000000001,0.55675,0.8817499999999999,0.80975,0.8027500000000001,0.7265,0.75925,0.68,0.49646346976388356,0.5006259345550649,0.5353270508050214,0.5012089448247365,0.49948986721951444,0.6625720284149393,0.6060311475924439,0.23248981569596908
0.6445000000000001,0.62475,0.67325,0.6132500000000001,0.70825,0.556,0.8817499999999999,0.80925,0.802,0.72625,0.7585,0.67975,0.4965017213200264,0.5006294119692597,0.5353548701185799,0.5008385744585659,0.4991614255482651,0.6579084357844718,0.6100801327600197,0.23320196436425192
0.644,0.6245,0.6727500000000001,0.61275,0.7077500000000001,0.5557500000000001,0.88225,0.80975,0.8015000000000001,0.72625,0.75825,0.6795,0.49651215356261086,0.5005772507563376,0.5353722571895538,0.500489168446687,0.4989028650875887,0.6586895516788548,0.6116371830518673,0.23186215318838238
0.6435,0.62425,0.6722499999999999,0.61225,0.7072499999999999,0.5555,0.88275,0.81025,0.8009999999999999,0.72625,0.758,0.67925,0.4965399728761693,0.5005320443718051,0.5353618249469694,0.5001886792569343,0.4986512927472865,0.6581638568571702,0.6130389378515024,0.2335006790449579
0.643,0.624,0.67175,0.61175,0.70675,0.55525,0.88325,0.8107500000000001,0.8005,0.72625,0.75775,0.679,0.49658170184650696,0.5004868379872727,0.5354209409882811,0.4998881900740128,0.49838574418672893,0.657392641676516,0.6163106318956029,0.23399816666024947
0.6425,0.62375,0.67125,0.61125,0.70625,0.555,0.88375,0.81125,0.8,0.72625,0.7575,0.67875,0.49659213408909136,0.5004520638453246,0.5354313732308655,0.4997484276665288,0.49828092237428495,0.6563676528659603,0.6163103033383339,0.2338906711737279
0.6425,0.62375,0.67125,0.61125,0.70625,0.555,0.88375,0.81125,0.8,0.72625,0.7575,0.67875,0.4965747470181173,0.5004346767743506,0.5354383280592552,0.4996785464627868,0.49805730252231056,0.6550624960154686,0.6166223708977794,0.23357895517507055
0.64275,0.6235,0.67125,0.6114999999999999,0.70625,0.55525,0.8825,0.81025,0.79875,0.72575,0.7567499999999999,0.677,0.4965469277045589,0.5004520638453246,0.5354244184024759,0.4996575821016642,0.49779175396175296,0.656105632387906,0.6181790906996681,0.23244282676763006
0.643,0.6232500000000001,0.67125,0.61175,0.70625,0.5555,0.88125,0.80925,0.7975,0.7252500000000001,0.7559999999999999,0.67525,0.49652954063358484,0.5004416316027402,0.5354661473728136,0.49955974840959444,0.4974004192481218,0.656105632387906,0.6181790906996681,0.23244282676763006
0.64325,0.623,0.67125,0.612,0.70625,0.5557500000000001,0.88,0.80825,0.79625,0.7247499999999999,0.7552500000000001,0.6735,0.4965051987342212,0.5004242445317661,0.5354974441005668,0.49944793848360725,0.497023060734253,0.6537721854184859,0.6197366338274192,0.23233457142587083
0.6435,0.62275,0.67125,0.61225,0.70625,0.556,0.87875,0.8072499999999999,0.795,0.72425,0.7545000000000001,0.67175,0.49652954063358484,0.5004520638453246,0.5356330632541642,0.49944793848360725,0.49683438150464265,0.6519578338653943,0.6216052569101188,0.2308885454767521
0.64375,0.6225,0.67125,0.6125,0.70625,0.55625,0.8775,0.80625,0.79375,0.72375,0.75375,0.67,0.49666863720137705,0.5005355217859999,0.535761727579372,0.49933612856445103,0.4968204052775563,0.650153379814642,0.6272107995336388,0.229132606399181
0.64375,0.6225,0.67125,0.6125,0.70625,0.55625,0.8775,0.80625,0.79375,0.72375,0.75375,0.67,0.4968320756685329,0.5005598636853635,0.5358834370761901,0.4990915443445231,0.49696016768504025,0.647043768913398,0.6290792583377041,0.2276894432209065
0.64375,0.6225,0.67125,0.6125,0.70625,0.55625,0.8775,0.80625,0.79375,0.72375,0.75375,0.67,0.49703376569183155,0.5005946378273116,0.5359877595020343,0.4988050314160119,0.4974703004518638,0.647043768913398,0.6290792583377041,0.2276894432209065
0.64425,0.6232500000000001,0.67175,0.613,0.7070000000000001,0.557,0.87725,0.80675,0.7935,0.72375,0.75375,0.669,0.49727370727127307,0.5006711409395973,0.5361059915846577,0.4984696016380503,0.49819706497078053,0.640580670983348,0.6406019163755962,0.22253272786457362
0.6447499999999999,0.624,0.6722499999999999,0.6135,0.7077500000000001,0.55775,0.877,0.8072499999999999,0.79325,0.72375,0.75375,0.6679999999999999,0.4974162812532601,0.5006155023124804,0.5361233786556316,0.4979385045101042,0.49923130675883803,0.6145190604507201,0.6751578942835754,0.17649817965247513
0.6452500000000001,0.62475,0.6727500000000001,0.614,0.7084999999999999,0.5585,0.8767499999999999,0.8077500000000001,0.7929999999999999,0.72375,0.75375,0.667,0.4974614876377925,0.5004903154014675,0.5360364433007615,0.49753319351473857,0.5005380852483203,0.6077906439456324,0.6757762738521899,0.16469731607582852
0.64575,0.6255,0.67325,0.6145,0.7092499999999999,0.55925,0.8765000000000001,0.80825,0.7927500000000001,0.72375,0.75375,0.6659999999999999,0.49739541676809124,0.5003859929756234,0.5359634176026706,0.4973934311072546,0.5019566736911139,0.6002943103568738,0.6756147319064875,0.151466082815204
0.64625,0.62625,0.67375,0.615,0.71,0.56,0.87625,0.80875,0.7925,0.72375,0.75375,0.665,0.4972806620996627,0.5002990576207532,0.5358521403484369,0.497372466739301,0.5031306779276413,0.5850247732364036,0.6695285099984672,0.12460131580923231
0.64625,0.62625,0.67375,0.615,0.71,0.56,0.87625,0.80875,0.7925,0.72375,0.75375,0.665,0.49696421740793545,0.4999895677574156,0.5359599401884758,0.4986582808881537,0.5054227813557308,0.5775168914911192,0.6634482040539784,0.11024798743345435
0.6465000000000001,0.62725,0.67425,0.61575,0.7105,0.561,0.8795000000000001,0.81,0.7975,0.73075,0.75775,0.68,0.49671384358590953,0.4997635358347533,0.5361025141704628,0.5000768693036232,0.5073165619293218,0.5775168914911192,0.6634482040539784,0.11024798743345435
0.6467499999999999,0.62825,0.67475,0.6164999999999999,0.711,0.562,0.88275,0.81125,0.8025,0.73775,0.7617499999999999,0.695,0.49620266369927324,0.4986438084640262,0.5339639044406579,0.5008176100769504,0.5084206849621073,0.5627763472893169,0.6428754225135349,0.07479145152778165
0.647,0.62925,0.67525,0.61725,0.7115,0.563,0.8859999999999999,0.8125,0.8075,0.7447499999999999,0.76575,0.71,0.49570539346941617,0.49983308411864935,0.5337517821747748,0.5003424179188288,0.5075890986307466,0.5627763472893169,0.6428754225135349,0.07479145152778165
0.64725,0.63025,0.6757500000000001,0.618,0.7120000000000001,0.564,0.88925,0.81375,0.8125,0.7517499999999999,0.7697499999999999,0.725,0.4950829363285461,0.500107799840039,0.533000660708697,0.5006568833424988,0.5053668763380892,0.5594179115093412,0.6361749318681421,0.06351548296034566
0.6475,0.63125,0.67625,0.61875,0.7125,0.565,0.8925,0.815,0.8175,0.75875,0.77375,0.74,0.49459957575546826,0.5005981152415064,0.532020029905762,0.4997484276938528,0.5018448637241406,0.5581374984146976,0.6299426237348897,0.05593607049270302
0.6475,0.63125,0.67625,0.61875,0.7125,0.565,0.8925,0.815,0.8175,0.75875,0.77375,0.74,0.49454741454254614,0.5015544041450777,0.5315923079598011,0.49822501746593933,0.49837176795964255,0.5599716481838571,0.6209051612833325,0.0439542249852152
0.6475,0.63125,0.67625,0.61875,0.7125,0.565,0.8925,0.815,0.8175,0.75875,0.77375,0.74,0.495173349097611,0.5024724414925061,0.5340404075529437,0.49682739336377546,0.49545772171578434,0.6662980623131077,0.6124070758387213,0.2198753536845245
0.6475,0.63125,0.67625,0.61875,0.7125,0.565,0.8925,0.815,0.8175,0.75875,0.77375,0.74,0.49588274159335116,0.5011440692700908,0.5348436902319436,0.4964779873040795,0.494779874046318,0.6662980623131077,0.6124070758387213,0.2198753536845245
0.6475,0.63125,0.67625,0.61875,0.7125,0.565,0.8925,0.815,0.8175,0.75875,0.77375,0.74,0.4966408178878186,0.5007198247383245,0.5361790172827485,0.4957232702900039,0.4962403911976947,0.6719453998791979,0.6197364695487847,0.24869558931064592
0.6465000000000001,0.62925,0.675,0.61725,0.71125,0.5625,0.89,0.8125,0.815,0.75375,0.77225,0.73425,0.4973536877977536,0.5001703932955455,0.5372083318844108,0.49560447223681153,0.4983368273372785,0.6905337795588972,0.6244247169984526,0.29590232463318183
0.6455,0.62725,0.67375,0.61575,0.71,0.56,0.8875,0.81,0.8125,0.74875,0.77075,0.7284999999999999,0.49753799075007826,0.499429704072052,0.537542163647112,0.4947030047153708,0.4999510831505496,0.6990650026719404,0.6227178001400898,0.31182205496505216
0.6445000000000001,0.62525,0.6725,0.61425,0.70875,0.5575,0.885,0.8075,0.81,0.74375,0.76925,0.72275,0.4972180686441562,0.499429704072052,0.5373578606947873,0.49450733731756924,0.5016352202085487,0.6990650026719404,0.6227178001400898,0.31182205496505216
0.6435,0.6232500000000001,0.67125,0.61275,0.7075,0.555,0.8825,0.805,0.8075,0.73875,0.76775,0.7170000000000001,0.49681468859755884,0.49929756233264944,0.5369266613346315,0.4946820403200932,0.502907058130315,0.7825054015891987,0.5984495320631328,0.3757578034661757
0.6425,0.62125,0.67,0.61125,0.70625,0.5525,0.88,0.8025,0.805,0.73375,0.76625,0.71125,0.4965504051187537,0.499394929930104,0.5363946169628264,0.4948218027549012,0.5035290008367878,0.7825054015891987,0.5984495320631328,0.3757578034661757
0.6409999999999999,0.62,0.66875,0.6095,0.7045,0.5495,0.88075,0.80325,0.80425,0.73225,0.76575,0.71025,0.4962409152554161,0.4996487811663247,0.5359529853600863,0.4942138363028388,0.5033193572118998,0.8064823964539171,0.5849184111707987,0.4386099308556803
0.6395000000000001,0.61875,0.6675,0.60775,0.7027500000000001,0.5465,0.8815000000000001,0.804,0.8035,0.73075,0.7652500000000001,0.7092499999999999,0.4959905414333901,0.49951316201272733,0.5357512953367876,0.4951362681649092,0.5033333334389861,0.8105658579998339,0.5774473706240139,0.45842472264897405
0.638,0.6175,0.66625,0.606,0.701,0.5435,0.88225,0.80475,0.8027500000000001,0.72925,0.7647499999999999,0.70825,0.495743645025559,0.499394929930104,0.5356052439406057,0.4962893080744691,0.5030607967375613,0.8182978176566125,0.5691978851379327,0.47650937667143395
0.6365,0.61625,0.665,0.60425,0.6992499999999999,0.5405,0.883,0.8055,0.802,0.72775,0.76425,0.7072499999999999,0.49558716138679276,0.4993497235455715,0.53544180547345,0.4970719775837034,0.5026554857148718,0.8438799356278267,0.5439786196420867,0.5127882363581595
0.635,0.615,0.66375,0.6025,0.6975,0.5375,0.88375,0.80625,0.80125,0.72625,0.76375,0.70625,0.4955280453454811,0.4993184268178183,0.5354696247870083,0.49836477984609934,0.5020684836307631,0.8596619655478799,0.5323031322241891,0.5284138124396478
0.635,0.615,0.66375,0.6025,0.6975,0.5375,0.88375,0.80625,0.80125,0.72625,0.76375,0.70625,0.4955593420732343,0.4992558333623118,0.5357130437806448,0.4997693920344824,0.5016771488898079,0.8596619655478799,0.5323031322241891,0.5284138124396478
0.635,0.615,0.66375,0.6025,0.6975,0.5375,0.88375,0.80625,0.80125,0.72625,0.76375,0.70625,0.495761032096533,0.49929756233264944,0.5360851270994889,0.5013347309983031,0.5018099231564247,0.8759746390407874,0.5231190907114962,0.5429110138843646
0.635,0.615,0.66375,0.6025,0.6975,0.5375,0.88375,0.80625,0.80125,0.72625,0.76375,0.70625,0.4960496574747018,0.49952011684111697,0.5365615328441771,0.5029140461618862,0.5026484976559766,0.9075601477511481,0.5024140339472559,0.5708843739624201
0.63375,0.614,0.662,0.6004999999999999,0.69625,0.5355,0.88425,0.80625,0.8007500000000001,0.726,0.7635,0.7045,0.4964704245922732,0.49976701324894807,0.5373404736238133,0.5048078268174492,0.5044025158494077,0.9744998142082736,0.47487308615439144,0.6653244291496281
0.6325,0.613,0.66025,0.5985,0.695,0.5335,0.8847499999999999,0.80625,0.80025,0.72575,0.76325,0.7027500000000001,0.49687380463887054,0.5000208644851688,0.5383767430538652,0.5061635221017339,0.5076100630260242,0.9734500784304805,0.4765864156775685,0.6706755778228558
0.63125,0.612,0.6585,0.5965,0.69375,0.5315,0.8852500000000001,0.80625,0.79975,0.7254999999999999,0.763,0.701,0.49732239107000037,0.5001912577807143,0.5403623465590986,0.5076310274213018,0.5125856047324542,0.9734500784304805,0.4765864156775685,0.6706755778228558
0.63,0.611,0.65675,0.5945,0.6925,0.5295000000000001,0.88575,0.80625,0.79925,0.7252500000000001,0.76275,0.6992499999999999,0.49763883576172757,0.5006294119692597,0.5425565949160205,0.5090566040049624,0.5210691826071543,0.9755165529592872,0.4781434640367262,0.6743180439198068
0.62875,0.61,0.655,0.5925,0.69125,0.5275,0.88625,0.80625,0.79875,0.725,0.7625,0.6975,0.49797962235281845,0.5005633410995584,0.5498035260979935,0.5114675056365263,0.5328162133318887,0.9768184117127956,0.4786096752052529,0.6721862109506447
0.62875,0.61,0.655,0.5925,0.69125,0.5275,0.88625,0.80625,0.79875,0.725,0.7625,0.6975,0.4983099767013249,0.49938797510171434,0.5559133428382654,0.5151642211437029,0.5507337543811961,0.9796841464864773,0.4796987053309047,0.6708975120543145
0.62875,0.61,0.655,0.5925,0.69125,0.5275,0.88625,0.80625,0.79875,0.725,0.7625,0.6975,0.49826477031679245,0.4993323364745975,0.5630524741801997,0.5196995112597272,0.5723340338362255,0.9877771080674819,0.47517890532765694,0.6617577738746852
0.63225,0.6125,0.657,0.5945,0.69325,0.529,0.889,0.8075,0.8045,0.7325,0.7667499999999999,0.70625,0.49868553743436383,0.49864033104983135,0.570149876551796,0.5263941309197604,0.6017190801941713,0.9851997881818889,0.46801302490690994,0.6555418040808039
0.63575,0.615,0.659,0.5965,0.69525,0.5305,0.8917499999999999,0.80875,0.81025,0.74,0.7709999999999999,0.715,0.49917585283583127,0.49850471189623397,0.5770768856278471,0.5336897282352125,0.6303843515675915,0.9851997881818889,0.46801302490690994,0.6555418040808039
0.63925,0.6175,0.6609999999999999,0.5985,0.6972499999999999,0.532,0.8945000000000001,0.81,0.816,0.7475,0.7752500000000001,0.72375,0.5005250895434156,0.5003233995201168,0.5807559898459506,0.5421453536010918,0.6612089509548764,0.9740665014274049,0.46380348539812827,0.6471587479314258
0.64275,0.62,0.6629999999999999,0.6004999999999999,0.6992499999999999,0.5335,0.89725,0.81125,0.82175,0.755,0.7795000000000001,0.7325,0.5017734812393504,0.4997739680773377,0.5899850471189624,0.5512718391786704,0.6902585674255646,0.9523289208371045,0.46114556725549705,0.6280250540040483
0.64625,0.6225,0.665,0.6025,0.70125,0.535,0.9,0.8125,0.8275,0.7625,0.78375,0.74125,0.5000312967277533,0.5020064679904024,0.6101923010049727,0.5739762417757814,0.7141789029814483,0.7757043980479738,0.5593349534711304,0.41295946642378106
0.64625,0.6225,0.665,0.6025,0.70125,0.535,0.9,0.8125,0.8275,0.7625,0.78375,0.74125,0.4946691240393643,0.5034426400528567,0.6168724136731927,0.5944095047936006,0.7285464771046022,0.7462282583955389,0.5831460534352167,0.3706219659443092
0.64625,0.6225,0.665,0.6025,0.70125,0.535,0.9,0.8125,0.8275,0.7625,0.78375,0.74125,0.48297110268804117,0.5077337691692457,0.6144173592516604,0.6176100649277747,0.7323340367216402,0.7118248549803957,0.6085145303157299,0.32272125743099617
0.64625,0.6225,0.665,0.6025,0.70125,0.535,0.9,0.8125,0.8275,0.7625,0.78375,0.74125,0.4698577737594325,0.5152206419306604,0.5972250234725458,0.6451642225864102,0.7075331967826892,0.6377891771113792,0.6411857703733115,0.22722906966310863
0.6485,0.6265,0.66825,0.606,0.70475,0.54275,0.905,0.81675,0.831,0.76775,0.787,0.74675,0.4528601731752269,0.5134054317209723,0.5688041172584066,0.621264850879324,0.6484626152390882,0.6025931128567169,0.6548754703978579,0.17746997799941125
0.65075,0.6305,0.6715000000000001,0.6095,0.70825,0.5505,0.91,0.821,0.8345,0.773,0.79025,0.75225,0.4371040094585666,0.5148276941266474,0.5213721876412699,0.5789517825531953,0.5912928032023416,0.6025931128567169,0.6548754703978579,0.17746997799941125
0.653,0.6345000000000001,0.67475,0.613,0.71175,0.55825,0.915,0.82525,0.838,0.77825,0.7935,0.75775,0.4226449212365685,0.523295197690997,0.4930069200542477,0.538581411431516,0.5381411609887187,0.5620678184310711,0.6481447273587523,0.04856218717677212
0.6552500000000001,0.6385000000000001,0.6779999999999999,0.6164999999999999,0.71525,0.5660000000000001,0.92,0.8295,0.8415,0.7835,0.79675,0.76325,0.41445213339360853,0.5280940292798275,0.4735125360781723,0.49459119323191547,0.49246680671478305,0.5620678184310711,0.6481447273587523,0.04856218717677212
0.6575,0.6425,0.68125,0.62,0.71875,0.57375,0.925,0.83375,0.845,0.78875,0.8,0.76875,0.4156970476753486,0.5248183051083215,0.46631428869492647,0.4519706483470701,0.48006289277050795,0.5543309068117336,0.6327234454883929,0.030358093003233885
0.6575,0.6425,0.68125,0.62,0.71875,0.57375,0.925,0.83375,0.845,0.78875,0.8,0.76875,0.42488437597802275,0.532538164620788,0.4670897520603679,0.45742138193838167,0.4987910549908265,0.552523154663998,0.6300722685678448,0.01595421217288688
0.6575,0.6425,0.68125,0.62,0.71875,0.57375,0.925,0.83375,0.845,0.78875,0.8,0.76875,0.4390791807212157,0.5323886358104114,0.4771916402962757,0.4638294882327196,0.5165828101056523,0.5375139905787852,0.6219747891359068,0.001958448291799771
0.6575,0.6425,0.68125,0.62,0.71875,0.57375,0.925,0.83375,0.845,0.78875,0.8,0.76875,0.45906388009875854,0.5256807038286331,0.4834892374030671,0.4681691111695344,0.5311390649885608,0.535157447296314,0.622287844299849,0.0026758217766528086
0.6575,0.64225,0.682,0.62075,0.7195,0.57375,0.9259999999999999,0.8355,0.8445,0.7895,0.8009999999999999,0.77075,0.48258510971241786,0.5171923357791146,0.4915603157492089,0.4739762393712692,0.5458001417385613,0.5369751001577783,0.6208870751720207,0.0016471693722663267
0.6575,0.642,0.6827500000000001,0.6214999999999999,0.7202500000000001,0.57375,0.927,0.8372499999999999,0.8440000000000001,0.79025,0.802,0.77275,0.49935667837396114,0.510880829015544,0.5010049727022986,0.4725576508465037,0.5487770808403643,0.5369783982547615,0.6216661752931651,0.0011340228940382518
0.6575,0.6417499999999999,0.6835,0.62225,0.721,0.57375,0.9279999999999999,0.8390000000000001,0.8434999999999999,0.7909999999999999,0.8029999999999999,0.7747499999999999,0.5149911325938032,0.5049727022985708,0.5099314949403624,0.47204052989782697,0.547330539861426,0.5346367044371885,0.6221333721334987,0.002366568488304258
0.6575,0.6415000000000001,0.68425,0.623,0.72175,0.57375,0.929,0.84075,0.843,0.79175,0.804,0.7767499999999999,0.5309941927182946,0.49958271029662343,0.5169628264422576,0.4710412286228374,0.5371488482644563,0.5346367044371885,0.6221333721334987,0.002366568488304258
0.6575,0.64125,0.685,0.62375,0.7225,0.57375,0.93,0.8425,0.8425,0.7925,0.805,0.77875,0.5433146712104879,0.4959244705636888,0.5214626004103349,0.4687351488583656,0.5212928028416648,0.5346367044371885,0.6221333721334987,0.002366568488304258
0.6575,0.64125,0.685,0.62375,0.7225,0.57375,0.93,0.8425,0.8425,0.7925,0.805,0.77875,0.5508537051848246,0.49520116841116946,0.5238411517195813,0.46451432456220915,0.49996505866721197,0.5359319637853409,0.6221337006907677,0.002266657266283207
0.6575,0.64125,0.685,0.62375,0.7225,0.57375,0.93,0.8425,0.8425,0.7925,0.805,0.77875,0.5548596863372396,0.4962756893973641,0.5246583440553604,0.46042627393154145,0.47381551297836766,0.5372272231334934,0.6224451111356752,0.0018542682420203684
0.6577500000000001,0.642,0.68525,0.6245,0.72275,0.5742499999999999,0.9309999999999999,0.8440000000000001,0.84325,0.7929999999999999,0.805,0.77925,0.5528532183468373,0.49906109816740274,0.5238898355183086,0.4600419275227215,0.4425017453151709,0.5369717988494055,0.6208874037292896,0.0021579713398892537
0.6579999999999999,0.64275,0.6855,0.62525,0.723,0.57475,0.932,0.8454999999999999,0.8440000000000001,0.7935,0.805,0.7797499999999999,0.5441249087178774,0.5013909656779219,0.5218312063149841,0.46512927942837873,0.4158211013029553,0.5359270150341712,0.6215112102909115,0.00329668455403564
0.65825,0.6435,0.6857500000000001,0.626,0.7232500000000001,0.57525,0.9329999999999999,0.847,0.8447499999999999,0.794,0.805,0.7802500000000001,0.5331501895190736,0.5027262927287269,0.5190145008171924,0.4732564635123757,0.39215233761603474,0.5374826442061917,0.6208883894010966,0.002470010764109293
0.6585,0.64425,0.6859999999999999,0.6267499999999999,0.7234999999999999,0.57575,0.934,0.8484999999999999,0.8454999999999999,0.7945,0.805,0.78075,0.520659317731335,0.5023959383802205,0.5151232743332058,0.4830817604715981,0.37354297228763855,0.5348855293159204,0.622289981854787,0.002367528373809635
0.65875,0.645,0.68625,0.6275,0.72375,0.57625,0.935,0.85,0.84625,0.795,0.805,0.78125,0.5075042598323887,0.5011545015126752,0.5100045206384533,0.4923829489424046,0.36146051189423867,0.5374793461092083,0.621044342007847,0.0017494445883601598
0.65875,0.645,0.68625,0.6275,0.72375,0.57625,0.935,0.85,0.84625,0.795,0.805,0.78125,0.49525680703828634,0.4997774454915325,0.504256354974441,0.50013976251678,0.36171907302435313,0.5356633439019305,0.621823277850357,0.0018506456159385093
0.65875,0.645,0.68625,0.6275,0.72375,0.57625,0.935,0.85,0.84625,0.795,0.805,0.78125,0.4826963869666516,0.4988489759015196,0.49974267134958444,0.5075611464224898,0.3744584172930698,0.535925364379985,0.6213560810100233,0.0022646140999774463
0.65875,0.645,0.68625,0.6275,0.72375,0.57625,0.935,0.85,0.84625,0.795,0.805,0.78125,0.4718538095072504,0.4975797197204159,0.49587230935076676,0.5156324255981413,0.3985045394392111,0.535925364379985,0.6213560810100233,0.0022646140999774463
0.659,0.6452500000000001,0.68625,0.6275,0.7245,0.5765,0.93625,0.85125,0.8475,0.7957500000000001,0.8057500000000001,0.78125,0.4637722989185242,0.4968216434259485,0.49342420975762424,0.5224528311653319,0.4228581401113973,0.5359270150341712,0.6212006212391765,0.0023686960829697613
0.65925,0.6455,0.68625,0.6275,0.7252500000000001,0.57675,0.9375,0.8525,0.84875,0.7965000000000001,0.8065000000000001,0.78125,0.4596654727544598,0.4947873561219877,0.4921306116771569,0.5300698822502513,0.4553109711018556,0.5393002970676559,0.6212009517291351,0.003088420572917155
0.6595,0.64575,0.68625,0.6275,0.726,0.5770000000000001,0.93875,0.85375,0.85,0.7972499999999999,0.8072499999999999,0.78125,0.45910213165490144,0.4909795875786765,0.49287825572903987,0.5339622652645254,0.48458420676874203,0.5393002970676559,0.6212009517291351,0.003088420572917155
0.65975,0.6459999999999999,0.68625,0.6275,0.72675,0.57725,0.94,0.855,0.85125,0.7979999999999999,0.8079999999999999,0.78125,0.46286817122787494,0.4864589491254303,0.4933025002608061,0.5319916151687191,0.5042208247333405,0.5346218581836796,0.6210451634010193,0.0027771319116498953
0.66,0.64625,0.68625,0.6275,0.7275,0.5775,0.94125,0.85625,0.8525,0.79875,0.80875,0.78125,0.46794867336648466,0.4818583301457037,0.49411621518239035,0.522879106146115,0.5133752625464998,0.5364411584879407,0.6215126887986218,0.0026763452324832094
0.66,0.64625,0.68625,0.6275,0.7275,0.5775,0.94125,0.85625,0.8525,0.79875,0.80875,0.78125,0.4731369753451334,0.4773411691066523,0.4950933685711305,0.5112718381294287,0.522110413109883,0.5364411584879407,0.6215126887986218,0.0026763452324832094
0.66,0.64625,0.68625,0.6275,0.7275,0.5775,0.94125,0.85625,0.8525,0.79875,0.80875,0.78125,0.47650311228570436,0.47486177278575653,0.4972250234725458,0.49386443073497494,0.5216422089013607,0.536444456584924,0.6219797232930108,0.0019555601924476688
0.66,0.64625,0.68625,0.6275,0.7275,0.5775,0.94125,0.85625,0.8525,0.79875,0.80875,0.78125,0.47825920645408077,0.47493132106965263,0.49792398372570157,0.47552061492347636,0.5194060106002089,0.5366965827720286,0.6213569024031959,0.0038094147355052926
0.66025,0.6467499999999999,0.6865000000000001,0.628,0.72775,0.57775,0.94125,0.85725,0.852,0.799,0.80875,0.7822499999999999,0.4773724658344055,0.4778419167507042,0.4968529401537017,0.45939203312714805,0.52063591945818,0.5353996727696897,0.6216686414053723,0.0030881042912925837
0.6605,0.64725,0.68675,0.6285000000000001,0.728,0.578,0.94125,0.8582500000000001,0.8515,0.79925,0.80875,0.78325,0.4738776645686268,0.48280070939249575,0.4952185554821435,0.449056602758988,0.528273934610489,0.5353996727696897,0.6216686414053723,0.0030881042912925837
0.6607500000000001,0.64775,0.687,0.629,0.7282500000000001,0.57825,0.94125,0.85925,0.851,0.7995,0.80875,0.78425,0.4696978127064715,0.48865319748235214,0.49291998469937753,0.4434381535682716,0.5427672968540447,0.5356600458049473,0.6224470844119787,0.002365418963713923
0.6609999999999999,0.64825,0.6872499999999999,0.6295000000000001,0.7284999999999999,0.5785,0.94125,0.8602500000000001,0.8504999999999999,0.79975,0.80875,0.78525,0.4652675870222902,0.49543763257641615,0.4906040268456376,0.4452690409560298,0.564046122976791,0.5354013234238761,0.6218244297334882,0.002470004269620085
0.66125,0.64875,0.6875,0.63,0.72875,0.57875,0.94125,0.86125,0.85,0.8,0.80875,0.78625,0.46188058559655043,0.5014744236185972,0.48948429947491046,0.4525856029946477,0.5897274644571129,0.5354013234238761,0.6218244297334882,0.002470004269620085
0.66125,0.64875,0.6875,0.63,0.72875,0.57875,0.94125,0.86125,0.85,0.8,0.80875,0.78625,0.4639844211844073,0.5059707201724798,0.4916368188614946,0.4635849045319476,0.6133682772200048,0.5369553019417102,0.6218247582907571,0.0027759421212264525
0.66125,0.64875,0.6875,0.63,0.72875,0.57875,0.94125,0.86125,0.85,0.8,0.80875,0.78625,0.47100184302952325,0.5095872309350766,0.49466564662516954,0.4754367570144779,0.6283368316216821,0.5369553019417102,0.6218247582907571,0.0027759421212264525
0.66125,0.64875,0.6875,0.63,0.72875,0.57875,0.94125,0.86125,0.85,0.8,0.80875,0.78625,0.48927913203741696,0.4927391591612477,0.5422540598810724,0.48048916829777116,0.631383651093845,0.5372140243227813,0.6208901983987657,0.002878647272506053
0.6609999999999999,0.64875,0.6877500000000001,0.62975,0.7284999999999999,0.5792499999999999,0.9405,0.8604999999999999,0.8497499999999999,0.80025,0.80875,0.78625,0.48713009006502767,0.49605313488889663,0.5430538651458775,0.46814814677425687,0.5811320779133297,0.5372140243227813,0.6208901983987657,0.002878647272506053
0.6607500000000001,0.64875,0.688,0.6295000000000001,0.7282500000000001,0.57975,0.93975,0.8597499999999999,0.8495,0.8005,0.80875,0.78625,0.43935737385680007,0.49796919011023405,0.5669193587648225,0.47051013122848223,0.5061565339881907,0.5346185568753069,0.6215133478458496,0.002469689936342272
0.6605,0.64875,0.68825,0.62925,0.728,0.5802499999999999,0.9390000000000001,0.8590000000000001,0.84925,0.8007500000000001,0.80875,0.78625,0.44514726849115,0.4933963904440658,0.570918385088848,0.4697204734690847,0.3761565318897073,0.537217325631154,0.6207349048392431,0.0027797946522263818
0.66025,0.64875,0.6884999999999999,0.629,0.72775,0.58075,0.93825,0.8582500000000001,0.8490000000000001,0.8009999999999999,0.80875,0.78625,0.45508571825990196,0.5014535591334284,0.6119762144869075,0.463144652340414,0.26533193040393915,0.5374727467038525,0.621513512124484,0.002571641726873406
0.66,0.64875,0.68875,0.62875,0.7275,0.58125,0.9375,0.8575,0.84875,0.80125,0.80875,0.78625,0.45421984212539557,0.5177974058490107,0.5828180964634697,0.45615653180227056,0.1737875522723462,0.5374727467038525,0.621513512124484,0.002571641726873406
0.66,0.64875,0.68875,0.62875,0.7275,0.58125,0.9375,0.8575,0.84875,0.80125,0.80875,0.78625,0.4739228709531592,0.5126508328406997,0.6000417289703377,0.4634381536557084,0.12912647342386235,0.537471096049666,0.6227589876927897,0.0033998040537268955
0.66,0.64875,0.68875,0.62875,0.7275,0.58125,0.9375,0.8575,0.84875,0.80125,0.80875,0.78625,0.5275793719789964,0.5256563619292693,0.5992245366345585,0.448148146358932,0.09953178639202087,0.5112577088280185,0.6218324851846473,0.025393245640557557
0.66,0.64875,0.68875,0.62875,0.7275,0.58125,0.9375,0.8575,0.84875,0.80125,0.80875,0.78625,0.5304656257606843,0.510366171714713,0.6101436172062454,0.4480503126600312,0.1524667951731245,0.8282186089923043,0.5814960272343207,0.3566444957404315
0.65275,0.642,0.6822499999999999,0.62275,0.7195,0.575,0.92875,0.84925,0.84,0.784,0.79625,0.755,0.5418367701776958,0.5062454358938693,0.5801996035747818,0.4543466089190859,0.22640809720090999,0.86578936087993,0.5097213969260901,0.3811871912509276
0.6455,0.63525,0.6757500000000001,0.61675,0.7115,0.56875,0.92,0.841,0.83125,0.7667499999999999,0.78375,0.72375,0.5405536043398129,0.5128664325207776,0.5834857599888723,0.4612368959769206,0.3001118043518908,0.86578936087993,0.5097213969260901,0.3811871912509276
0.63825,0.6285000000000001,0.66925,0.61075,0.7034999999999999,0.5625,0.91125,0.8327500000000001,0.8225,0.7495,0.77125,0.6925,0.5326181451472685,0.5089891156935703,0.5760684355113538,0.46469601584222037,0.3892243165659383,1.0,0.6936003646073456,0.6625439824506848
0.631,0.62175,0.6627500000000001,0.60475,0.6955,0.55625,0.9025,0.8245,0.81375,0.73225,0.75875,0.66125,0.5299683555308273,0.4911256389748583,0.5561393747609278,0.47782669403217215,0.4668064275531145,0.9238018848621049,1.0,0.9891229002291877
0.62375,0.615,0.65625,0.59875,0.6875,0.55,0.89375,0.81625,0.805,0.715,0.74625,0.63,0.5222658830893347,0.5068157318218173,0.5463330667315784,0.47879105468479766,0.5096995109974168,0.9483067743502933,0.3308477460551954,0.4838373114761976
0.62375,0.615,0.65625,0.59875,0.6875,0.55,0.89375,0.81625,0.805,0.715,0.74625,0.63,0.5021629516291686,0.4991828076642209,0.5436172062454359,0.4793850449370976,0.5156044726794604,0.9046847884432319,0.24516794013466994,0.43719473619519267
0.62375,0.615,0.65625,0.59875,0.6875,0.55,0.89375,0.81625,0.805,0.715,0.74625,0.63,0.49542024550544217,0.49271481726188404,0.5337413499321905,0.4858770087032499,0.5112928024154103,0.9046847884432319,0.24516794013466994,0.43719473619519267
0.624,0.61525,0.6565000000000001,0.59925,0.68825,0.54725,0.8945000000000001,0.81475,0.80425,0.7134999999999999,0.748,0.6325,0.4941927182946761,0.49686337239628614,0.5336057307785931,0.4961355694398987,0.4941299791589125,0.8726904377397456,0.24266597653147892,0.431652231943507
0.62425,0.6154999999999999,0.65675,0.59975,0.6890000000000001,0.5445,0.8952500000000001,0.81325,0.8035,0.7120000000000001,0.7497499999999999,0.635,0.497917028897312,0.49791355148311717,0.5388740132837222,0.5017470300252399,0.49288609369131897,0.8533239672945417,0.6561981317994032,0.5956301950141711
0.6245,0.61575,0.657,0.60025,0.68975,0.54175,0.8959999999999999,0.81175,0.8027500000000001,0.7105,0.7515000000000001,0.6375,0.5003651284904544,0.49958618771081825,0.5402580241332545,0.5055136268864404,0.49777078975774336,0.8533239672945417,0.6561981317994032,0.5956301950141711
0.62475,0.616,0.6572499999999999,0.60075,0.6905,0.539,0.8967499999999999,0.81025,0.802,0.7090000000000001,0.75325,0.64,0.49917237542163645,0.5001251869110129,0.5379385888653198,0.5069811321513602,0.5025296996164462,0.8645314917393494,0.6216166752415604,0.5708875504170933
0.625,0.61625,0.6575,0.60125,0.69125,0.53625,0.8975,0.80875,0.80125,0.7075,0.755,0.6425,0.4973536877977536,0.4999756581006364,0.5358382306916577,0.5071767995491618,0.5037875612838021,0.8661366116344557,0.5818891440739511,0.5351760921714639
0.625,0.61625,0.6575,0.60125,0.69125,0.53625,0.8975,0.80875,0.80125,0.7075,0.755,0.6425,0.4967103661717147,0.4999791355148312,0.5346350453802552,0.5064989518796955,0.5022921035032304,0.8519860960195432,0.5477518660207159,0.4661541013153332
0.627,0.61725,0.65925,0.6025,0.6927500000000001,0.5375,0.8965000000000001,0.8085,0.802,0.71075,0.7559999999999999,0.65,0.49670341134332513,0.5000382515561429,0.5350592899120215,0.5055625437905388,0.5017120895053409,0.8375026203332362,0.5541235191571171,0.43888493740352175
0.629,0.6182500000000001,0.6609999999999999,0.60375,0.6942499999999999,0.53875,0.8955,0.80825,0.8027500000000001,0.7140000000000001,0.757,0.6575,0.49672775324268875,0.49994783878707794,0.5355982891122162,0.5041928722381817,0.5012299091790281,0.8375026203332362,0.5541235191571171,0.43888493740352175
0.631,0.61925,0.6627500000000001,0.605,0.69575,0.54,0.8945000000000001,0.8079999999999999,0.8035,0.7172499999999999,0.758,0.665,0.496651250130403,0.5000382515561429,0.535636540668359,0.5036477988899801,0.5010621942900473,0.804374681261567,0.5629739629457982,0.38895128945660845
0.633,0.62025,0.6645,0.60625,0.6972499999999999,0.54125,0.8935,0.8077500000000001,0.80425,0.7204999999999999,0.759,0.6725,0.4967103661717147,0.5002086448516883,0.5357373856800084,0.5030328442424026,0.5014046122088761,0.8018089095324998,0.5586079779943628,0.37551880821156
0.635,0.62125,0.66625,0.6075,0.69875,0.5425,0.8925,0.8075,0.805,0.72375,0.76,0.68,0.4967312306568835,0.500107799840039,0.5359043015613589,0.5029559748841314,0.5019426975050134,0.7984686213144057,0.5576675002061504,0.36250373168479194
0.635,0.62125,0.66625,0.6075,0.69875,0.5425,0.8925,0.8075,0.805,0.72375,0.76,0.68,0.49664777271620825,0.5002538512362208,0.5360051465730084,0.5031935709631922,0.5028581412262165,0.7984686213144057,0.5576675002061504,0.36250373168479194
0.635,0.62125,0.66625,0.6075,0.69875,0.5425,0.8925,0.8075,0.805,0.72375,0.76,0.68,0.49657822443231214,0.5005111798866363,0.5360364433007615,0.5037246681252933,0.5041020266938101,0.7475367133430137,0.568994745909289,0.2782874644251202
0.635,0.62125,0.66625,0.6075,0.69875,0.5425,0.8925,0.8075,0.805,0.72375,0.76,0.68,0.4966999339291303,0.5010710435719998,0.5361824946969433,0.503605870085763,0.5055625438451867,0.7390087915383434,0.5714794486597204,0.26279933186825194
0.6365,0.623,0.6675,0.60875,0.70025,0.5435,0.89425,0.80825,0.8085,0.72725,0.763,0.6877500000000001,0.49665472754459783,0.5007615537086623,0.5364954619744757,0.5029559749251173,0.507393431451537,0.7289219392532799,0.5741204287087914,0.25018112123763475
0.638,0.62475,0.66875,0.61,0.70175,0.5445,0.8959999999999999,0.809,0.812,0.73075,0.7659999999999999,0.6955,0.4965469277045589,0.5009110825190388,0.5365476231873978,0.5032075473405606,0.5089378061293761,0.7157452742830404,0.5892159962969045,0.2272014161280485
0.6395000000000001,0.6265,0.67,0.61125,0.70325,0.5455,0.89775,0.80975,0.8155,0.73425,0.769,0.70325,0.4965504051187537,0.5007406892234935,0.5364745974893069,0.5035290008914357,0.510090846011612,0.7124049860649462,0.5960635607720263,0.2176671715001987
0.6409999999999999,0.62825,0.67125,0.6125,0.70475,0.5465,0.8995000000000001,0.8105,0.8190000000000001,0.73775,0.772,0.711,0.4967694822130264,0.5011336370275064,0.5364015717912161,0.5043745634498829,0.5109923135877008,0.7124049860649462,0.5960635607720263,0.2176671715001987
0.6425,0.63,0.6725,0.61375,0.70625,0.5475,0.90125,0.81125,0.8225,0.74125,0.775,0.71875,0.4965643147755329,0.5001808255381298,0.536794519595229,0.5037526207092551,0.5118518523732343,0.6927767713211823,0.6033658272478117,0.18168504502552088
0.6425,0.63,0.6725,0.61375,0.70625,0.5475,0.90125,0.81125,0.8225,0.74125,0.775,0.71875,0.4963973988941823,0.5007789407796363,0.5361477205549953,0.5037176801005531,0.512159329587727,0.6845042705892103,0.6047613375266466,0.16958927513664157
0.6425,0.63,0.6725,0.61375,0.70625,0.5475,0.90125,0.81125,0.8225,0.74125,0.775,0.71875,0.49615397990054594,0.5005181347150259,0.5354000765031123,0.5027183788323946,0.5120964365111903,0.6845042705892103,0.6047613375266466,0.16958927513664157
0.6425,0.63,0.6725,0.61375,0.70625,0.5475,0.90125,0.81125,0.8225,0.74125,0.775,0.71875,0.49590360607852,0.5004903154014675,0.5345759293389436,0.5013766597205483,0.5114884700318039,0.6599125065931433,0.6073944283358829,0.14221067843217688
0.64275,0.63075,0.67325,0.614,0.7072499999999999,0.54825,0.9035,0.81325,0.8255,0.747,0.7775,0.7275,0.4952846263518448,0.4999165420593247,0.5334040407552944,0.49939203350695166,0.5094828793956057,0.6042048321571791,0.6025459531695883,0.10085789968372189
0.643,0.6315,0.674,0.61425,0.70825,0.5489999999999999,0.90575,0.81525,0.8284999999999999,0.75275,0.78,0.73625,0.4950585944291825,0.5004381541885454,0.5321834683729179,0.4988399719700659,0.5064570233077323,0.601611015363891,0.6027015772190697,0.10137297177800102
0.64325,0.63225,0.67475,0.6145,0.7092499999999999,0.54975,0.9079999999999999,0.8172499999999999,0.8315,0.7585,0.7825,0.745,0.49497165907431234,0.5001703932955455,0.531950481621866,0.4979804331708704,0.5026694620512542,0.601611015363891,0.6027015772190697,0.10137297177800102
0.6435,0.633,0.6755,0.61475,0.71025,0.5505,0.91025,0.8192499999999999,0.8345,0.76425,0.785,0.75375,0.4950238202872344,0.500302535034948,0.5320791459470737,0.4971837874550426,0.49953878401431684,0.5971879975526131,0.6036367922929092,0.10434374467886205
0.64375,0.63375,0.67625,0.615,0.71125,0.55125,0.9125,0.82125,0.8375,0.77,0.7875,0.7625,0.495155962026637,0.5003268769343117,0.5327954932712036,0.497232704304493,0.49658979725739066,0.5966639565965043,0.604572173578073,0.10608400411113118
0.64375,0.63275,0.6759999999999999,0.61475,0.71075,0.5505,0.91125,0.8205,0.83625,0.7705,0.7879999999999999,0.7625,0.49542372291963693,0.500267760893,0.5337761240741384,0.49719776373677704,0.49470999282891404,0.5966639565965043,0.604572173578073,0.10608400411113118
0.64375,0.6317499999999999,0.6757500000000001,0.6145,0.71025,0.54975,0.91,0.81975,0.835,0.7709999999999999,0.7885,0.7625,0.4957540772681434,0.5002155996800779,0.5346663421080085,0.4974982529470226,0.4935150242927429,0.5891230810358294,0.6064417842652694,0.11008428149336318
0.64375,0.63075,0.6755,0.61425,0.70975,0.5489999999999999,0.90875,0.8190000000000001,0.83375,0.7715000000000001,0.789,0.7625,0.4959731543624161,0.49983656153284417,0.5356747922245019,0.49824598182023094,0.49314465389241735,0.5883452664498191,0.6073765065032055,0.11254417254438398
0.64375,0.62975,0.67525,0.614,0.7092499999999999,0.54825,0.9075,0.81825,0.8325,0.772,0.7895,0.7625,0.4961922314566888,0.49945752338561045,0.5366832423409953,0.4989937106934393,0.49277428349209174,0.5883452664498191,0.6073765065032055,0.11254417254438398
0.64375,0.62875,0.675,0.61375,0.70875,0.5475,0.90625,0.8175,0.83125,0.7725,0.79,0.7625,0.49635219250964985,0.4993844976875196,0.5368918871926835,0.49966457024936245,0.4932634518772997,0.5872988319803986,0.6086228034646836,0.11335869644389451
0.64375,0.62875,0.675,0.61375,0.70875,0.5475,0.90625,0.8175,0.83125,0.7725,0.79,0.7625,0.4964808568348576,0.49948186528497407,0.5371005320443718,0.5007197764326975,0.4940531095274013,0.5867632396563747,0.6098717346823828,0.12002161243913004
0.64375,0.62875,0.675,0.61375,0.70875,0.5475,0.90625,0.8175,0.83125,0.7725,0.79,0.7625,0.49649824390583164,0.4995096845985325,0.5370761901450082,0.5015513627640583,0.4951851850143596,0.5898745012118051,0.6123663018816424,0.12442645038833001
0.64375,0.62875,0.675,0.61375,0.70875,0.5475,0.90625,0.8175,0.83125,0.7725,0.79,0.7625,0.49648781166324724,0.49989915498835064,0.5366971519977745,0.5019706500001723,0.49638714174604587,0.5989248165297872,0.6167357386170919,0.1425729683172176
0.64325,0.62875,0.67425,0.6135,0.7077500000000001,0.54675,0.903,0.815,0.8292499999999999,0.76775,0.78675,0.75725,0.4964808568348576,0.5002608060646103,0.536258997809229,0.5023060797644718,0.49788958764699176,0.6460055812921304,0.6178635713562088,0.2179639190001227
0.64275,0.62875,0.6735,0.6132500000000001,0.70675,0.546,0.8997499999999999,0.8125,0.8272499999999999,0.763,0.7835,0.752,0.4964147859651563,0.5003233995201168,0.5361581527975797,0.5020894480260406,0.4990566037836381,0.6501484310634724,0.6142840829298493,0.22063307353415154
0.64225,0.62875,0.6727500000000001,0.613,0.70575,0.54525,0.8965000000000001,0.81,0.82525,0.75825,0.7802500000000001,0.74675,0.49637653440901347,0.5003651284904544,0.5360538303717356,0.5017819707022518,0.5001816911570532,0.6501484310634724,0.6142840829298493,0.22063307353415154
0.6417499999999999,0.62875,0.672,0.61275,0.70475,0.5445,0.89325,0.8075,0.82325,0.7535,0.777,0.7415,0.4963452376812602,0.5004590186737142,0.5359251660465278,0.5014675052649199,0.5010901467920371,0.6571471181061569,0.6097700384768779,0.22485245419999508
0.64125,0.62875,0.67125,0.6125,0.70375,0.54375,0.89,0.805,0.82125,0.74875,0.77375,0.73625,0.49632785061028617,0.5005146573008311,0.5357373856800084,0.5012438853992836,0.5017610063479603,0.6597508324017843,0.6074345471111136,0.22578575451378657
0.64125,0.62875,0.67125,0.6125,0.70375,0.54375,0.89,0.805,0.82125,0.74875,0.77375,0.73625,0.4962756893973641,0.500639844211844,0.5355356956567097,0.5010901467647131,0.5021802935840742,0.6597508324017843,0.6074345471111136,0.22578575451378657
0.6415000000000001,0.62825,0.67125,0.61225,0.7034999999999999,0.54325,0.8895000000000001,0.805,0.8205,0.7495,0.77375,0.73675,0.49624787008380566,0.5007093924957402,0.5354487603018395,0.5010132774337659,0.5024318659175454,0.6628587926488418,0.6052533617003751,0.22281080111022045
0.6417499999999999,0.62775,0.67125,0.612,0.70325,0.54275,0.889,0.805,0.81975,0.7502500000000001,0.77375,0.73725,0.4961748443857148,0.500747644051883,0.5354209409882811,0.5009573724707723,0.502522711502903,0.663397683069849,0.6016691072609259,0.21780060467773096
0.642,0.62725,0.67125,0.61175,0.703,0.54225,0.8885,0.805,0.8190000000000001,0.7509999999999999,0.77375,0.73775,0.4961192057585979,0.5007893730222207,0.5354557151302292,0.5010482180561299,0.5025157233620358,0.6641804464070288,0.599954621989238,0.2147265596566822
0.64225,0.6267499999999999,0.67125,0.6114999999999999,0.7027500000000001,0.54175,0.888,0.805,0.81825,0.7517499999999999,0.77375,0.7382500000000001,0.49608443161664983,0.5008311019925583,0.5354278958166707,0.5012019567043623,0.5024737946261286,0.6628901358100461,0.5957490271003737,0.210322176321727
0.6425,0.62625,0.67125,0.61125,0.7025,0.54125,0.8875,0.805,0.8175,0.7525,0.77375,0.73875,0.4961192057585979,0.501015404944883,0.5355078763431512,0.5014675052649199,0.5023969252678574,0.661609725926792,0.5912287342612226,0.2029460920234025
0.6425,0.62625,0.67125,0.61125,0.7025,0.54125,0.8875,0.805,0.8175,0.7525,0.77375,0.73875,0.4963382828528706,0.5017560941683764,0.5355948116980214,0.5019077568826494,0.5022921034554134,0.591588223875928,0.5911909231176338,0.1381007851126959
0.6425,0.62625,0.67125,0.61125,0.7025,0.54125,0.8875,0.805,0.8175,0.7525,0.77375,0.73875,0.4967173210001043,0.5026150154744932,0.5355322182425148,0.502976939293071,0.5020614954898959,0.591588223875928,0.5911909231176338,0.1381007851126959
0.6425,0.62625,0.67125,0.61125,0.7025,0.54125,0.8875,0.805,0.8175,0.7525,0.77375,0.73875,0.4976075390339743,0.5043780644712592,0.5355843794554369,0.5042278128195596,0.5015932914316554,0.58615176541062,0.5910315187268694,0.12968427649884118
0.6425,0.62625,0.67125,0.61125,0.7025,0.54125,0.8875,0.805,0.8175,0.7525,0.77375,0.73875,0.4984977570678443,0.5061550231248044,0.5356852244670862,0.5053808526744715,0.5010971348919183,0.5773568743767256,0.5890006965839294,0.11562394570491677
0.643,0.6267499999999999,0.6715000000000001,0.6114999999999999,0.7025,0.54225,0.8885,0.805,0.8177500000000001,0.7547499999999999,0.775,0.7415,0.4987585631324547,0.5059741975866745,0.5345202907118267,0.505220125926358,0.4962124387161979,0.5753035954472415,0.588841949307703,0.10803272430754189
0.6435,0.62725,0.67175,0.61175,0.7025,0.54325,0.8895000000000001,0.805,0.818,0.757,0.77625,0.74425,0.4991376012796884,0.5030566470772334,0.5343985812150085,0.49937805710225924,0.4908455622688127,0.5753035954472415,0.588841949307703,0.10803272430754189
0.644,0.62775,0.672,0.612,0.7025,0.54425,0.8905,0.805,0.81825,0.75925,0.7775,0.747,0.4940570991410787,0.49563236777132524,0.5344159682859826,0.4963661772687963,0.487037036671705,0.5790494243500883,0.5860293927873972,0.07447322285534357
0.6445000000000001,0.62825,0.6722499999999999,0.61225,0.7025,0.54525,0.8915000000000001,0.805,0.8184999999999999,0.7615000000000001,0.77875,0.7497499999999999,0.4920819278784296,0.4930069200542477,0.5346628646938136,0.4942487767885828,0.48365478636960646,0.5790494243500883,0.5860293927873972,0.07447322285534357
0.6455,0.6315,0.6735,0.61425,0.7042499999999999,0.5495,0.89225,0.8057500000000001,0.8175,0.76075,0.77875,0.7482500000000001,0.4901067566157805,0.49038147233717005,0.5349097611016448,0.4921313763083694,0.4802725360675079,0.5790494243500883,0.5860293927873972,0.07447322285534357
0.6459999999999999,0.63425,0.6745,0.616,0.706,0.55275,0.892,0.8065000000000001,0.81625,0.75775,0.7775,0.7440000000000001,0.490311924053274,0.4912334388148972,0.5359912369162291,0.49151642171543986,0.4819077562760566,0.5788105001850853,0.5850930258304264,0.06512200722133427
0.6465000000000001,0.637,0.6755,0.61775,0.7077500000000001,0.556,0.8917499999999999,0.8072499999999999,0.815,0.7547499999999999,0.77625,0.7397499999999999,0.4906944396147025,0.4932433842194944,0.5358590951768265,0.4963172605832899,0.4856743531372571,0.5759794066695909,0.5829085548469983,0.054235971033367546
